time,tableAccX_filtered,L1AccX_filtered,L2AccX_filtered,L3AccX_filtered
0,0.0121456375202765,0.0152217534924724,0.0154251913307534,-0.0204547047003002
0.005,0.017039350475448,0.0419622888709472,0.0350562737171596,-0.0347159427466349
0.01,0.021021237202743,0.056353616163511,0.0460426549624314,-0.0418762890731259
0.015,0.0236354209836881,0.0497693009566452,0.0433305818459435,-0.037998108178
0.02,0.0248156302614883,0.0243695872868657,0.028936682094685,-0.0244811768205754
0.025,0.0248008760050757,-0.00691236766501572,0.0114909246043735,-0.0078982673908153
0.03,0.023991360938324,-0.0269305021663766,0.00187307470822429,0.00305594207605757
0.035,0.022793162602752,-0.0241023127785178,0.00709131373265667,0.0024159702507725
0.04,0.0215457886857942,0.000300766391265526,0.0261269889623654,-0.00943272840059712
0.045,0.0205046324803145,0.0322304059742047,0.0501246145519033,-0.0256160158239958
0.05,0.0198455036256693,0.0526211537832166,0.0671352604389554,-0.0363839220897526
0.055,0.0196450497800107,0.0486922887263759,0.0688668060420731,-0.0347994915580651
0.06,0.0198719508519675,0.022043237348942,0.0554713325299639,-0.0210275130716283
0.065,0.0203920044801663,-0.011684062491423,0.035510457390029,-0.00257083128791119
0.07,0.0210083413575733,-0.031718887418121,0.0209306800884176,0.00996728194411923
0.075,0.0215417694865588,-0.0246982635969625,0.0200625508722872,0.00912666473613481
0.08,0.0219030265156581,0.00693330513827445,0.0326611846140007,-0.00472690918845581
0.085,0.0220960068263427,0.0457297660200709,0.0501346688882722,-0.0233686274048614
0.09,0.0221822464934074,0.0692360336506413,0.0607601171464971,-0.0355456075604318
0.095,0.0222138305475778,0.0632738078476641,0.0569027806029867,-0.0338175627580828
0.1,0.0221910761248811,0.0305394868349487,0.0398100999239726,-0.0192240888856163
0.105,0.0220629481072785,-0.0106877720018052,0.0190533607699542,-0.00101761772708099
0.11,0.0217927759496468,-0.0372748492320187,0.00675431856476849,0.00885394027996631
0.115,0.0214022178980348,-0.0348291799799828,0.0102651460778758,0.00303705067732509
0.12,0.020978239566164,-0.00619240880056128,0.0275540615161649,-0.0164318207799274
0.125,0.0206319555259414,0.0304137435692052,0.0482016046102861,-0.0389978779891246
0.13,0.0204403439292997,0.0524121655366414,0.0596048518477704,-0.0516294501813903
0.135,0.0204116094681957,0.0464470624950646,0.0545966142781718,-0.0465902926675201
0.14,0.0205047445078354,0.0163981001769409,0.0357290760978101,-0.0262494189310047
0.145,0.0206825128735756,-0.0189964287204491,0.013919010942998,-0.00183516355051359
0.15,0.0209545209848508,-0.0375285799268113,0.00194219469096891,0.0130446793250302
0.155,0.0213515739765107,-0.0269124653362735,0.00676780892030345,0.0104244815641092
0.16,0.0218689002216143,0.00774343227772181,0.025423352602449,-0.00735168551258278
0.165,0.0224052576042559,0.0468048417124638,0.0469255392635848,-0.029082410468545
0.17,0.0227694097719689,0.0677205881341698,0.0588734486202192,-0.0414594504192519
0.175,0.0227508045850606,0.0584426239053255,0.0550264911532727,-0.0370991126082346
0.18,0.0222608791262979,0.0243928576807247,0.0389885629637539,-0.0188790206808826
0.185,0.021427750722384,-0.014723753528752,0.0217912845263262,0.00177867744061187
0.19,0.0205707278072467,-0.0365264753018118,0.0151385969680077,0.0119245385458008
0.195,0.0200660799554328,-0.0291517649289211,0.0241367044437037,0.00494816129371747
0.2,0.0201536721201171,0.00197704231267722,0.0439649780852024,-0.0153986289170925
0.205,0.0207932749716384,0.0377389172536596,0.0628085226743325,-0.0372022712615935
0.21,0.0216691087564582,0.0568440937434498,0.0688645817352509,-0.0475271716808223
0.215,0.0223539850007715,0.048433088977332,0.0574496108373863,-0.040174480287667
0.22,0.0225200726711017,0.0185159015970412,0.0339001838304702,-0.0194399518922308
0.225,0.0221347909901176,-0.0140681448949249,0.0105157193924083,0.00241702537588649
0.23,0.0214659755628091,-0.0291309895595798,-0.000577274508915701,0.0125678631603289
0.235,0.0209310001140783,-0.0174084056915607,0.00569873967702367,0.00512690525369061
0.24,0.0208638098479201,0.013910444784481,0.0246027257342534,-0.0153425686359141
0.245,0.0213110050789126,0.0455740044530336,0.0447134582491936,-0.0365613335183887
0.25,0.0219953052683358,0.0580123810123858,0.054819430735701,-0.0459170283932008
0.255,0.0224669438166423,0.0430472881918166,0.0502177775038515,-0.0380270342743559
0.26,0.0223548676704517,0.00885518874900194,0.0352625423619251,-0.017803965237791
0.265,0.0215819916770952,-0.0249721497275543,0.0203269565119681,0.00258063838473119
0.27,0.0204387521115668,-0.0391314327626637,0.0152415361865836,0.0108863585887905
0.275,0.0194478346474498,-0.0259997289763538,0.0233937038117238,0.002208309912388
0.28,0.0190994489350503,0.00611182381325561,0.0398977040786116,-0.0181367241106358
0.285,0.0196093250343121,0.0382929692150298,0.0546525091030384,-0.037919375822751
0.29,0.0207973425409539,0.052402251411962,0.0585502180757497,-0.0451828173683067
0.295,0.0221748145723156,0.0418130357646514,0.049117413325759,-0.0352327370105539
0.3,0.0231956810220214,0.0148892355300299,0.0318110738308466,-0.013435375276358
0.305,0.0235110739009081,-0.0106155925366417,0.0167323908523343,0.00802113505489525
0.31,0.0231040605696132,-0.0186371910410118,0.012497659141793,0.0173612602277049
0.315,0.0222641678426296,-0.00450459480697667,0.0211914623008442,0.00986820739804408
0.32,0.0213993794424164,0.0225202557264822,0.0371468187162113,-0.009739466347212
0.325,0.020803928957246,0.0452041132220019,0.0506305859786651,-0.0303443913423037
0.33,0.0205328982601618,0.0490408248042967,0.0538299630321887,-0.0411238792003874
0.335,0.020431267393733,0.031068074477103,0.0455075106391472,-0.0377303041894132
0.34,0.0202857897375919,0.00150205192493966,0.0315700130237391,-0.0242100039635784
0.345,0.020008714507716,-0.0225737582352734,0.0212971488934188,-0.00995976867156017
0.35,0.0197125829124985,-0.027530762113123,0.0213878498135226,-0.00369669677929706
0.355,0.0196390094644587,-0.011150576215061,0.0316711220962541,-0.0081901307775471
0.36,0.0199894736834378,0.0164483065175134,0.0453595777522523,-0.0190136367160895
0.365,0.0207483298646832,0.0392100999233703,0.0532033831922571,-0.0278458429994083
0.37,0.021636976676701,0.0448158404255469,0.0493685428068542,-0.0280642237412405
0.375,0.0222362079642362,0.0317608980106414,0.035300760332865,-0.0190016425715518
0.38,0.022222009364132,0.00968913474051517,0.019032800096148,-0.00615954833433986
0.385,0.0215664828988729,-0.0070171932123841,0.0103103768503453,0.00243566671270237
0.39,0.0205955638412407,-0.00828633843483915,0.0146934035002423,0.00149826940314721
0.395,0.0198525381121543,0.00567167775413885,0.0301393698026031,-0.00804176234052271
0.4,0.0198152728530827,0.024916825199594,0.0481498753943515,-0.0197149231379707
0.405,0.0206298350842223,0.036245739571941,0.0588280148793059,-0.0257661160639147
0.41,0.0220069611041232,0.0316062047318798,0.0567542127936805,-0.0221341907238539
0.415,0.0233170536981901,0.0131421219724914,0.044071899457371,-0.0112399504443672
0.42,0.0238886397891585,-0.00810413756957196,0.0289074667138837,-0.000548785656815698
0.425,0.0233144391677694,-0.0190741393178296,0.0202668762611341,0.00219213594890449
0.43,0.0216612356323485,-0.0127626642282615,0.0225948231250731,-0.00594643758260079
0.435,0.019454558271443,0.00752741729585538,0.0332080630824846,-0.0211373187195574
0.44,0.0174759571776476,0.0300567179501958,0.044147002111683,-0.0347812266447068
0.445,0.0164458041856095,0.0418038931557981,0.0474861070296262,-0.0386999632843723
0.45,0.0167571526247436,0.0362845055763184,0.0402248596596218,-0.0302971703733492
0.455,0.0183306328330923,0.0173433981689357,0.0262617253664732,-0.0142802481190123
0.46,0.0206737289770788,-0.00335089097349473,0.0140466667912293,2.62983443159938e-05
0.465,0.0230677177386057,-0.0134162611267409,0.0113860167067555,0.00407871588971173
0.47,0.0248168676397873,-0.0072238628536494,0.0205703968517612,-0.00472432724796215
0.475,0.0254606278471213,0.0108737845272063,0.0370704406034422,-0.0212643546309077
0.48,0.0249157192998099,0.0294135543465495,0.0521238584953674,-0.0357712623423008
0.485,0.0234522966770782,0.0369911959895012,0.0578806279924715,-0.0394580505688844
0.49,0.0215861050887955,0.0292251519671187,0.0520451074037559,-0.029661760196381
0.495,0.0199115525809171,0.011368353318047,0.0390608728441617,-0.0114519068430575
0.5,0.018915964228471,-0.00512688210329812,0.0272556587222504,0.00531702123263153
0.505,0.0188276615509593,-0.00972456475376702,0.0238234175874908,0.0117561404179968
0.51,0.0195721833920971,0.000605736237516876,0.0304945747127428,0.00496644594545273
0.515,0.0208168015637162,0.0196071269540042,0.0426320387948679,-0.010382874561329
0.52,0.0220831608655154,0.0356422240432368,0.0521872586767953,-0.0250494526622682
0.525,0.0229148625563305,0.038805455013215,0.0526689019763467,-0.0307255473906614
0.53,0.0230188681019333,0.0269895760860137,0.043097915812423,-0.0248871335051812
0.535,0.0223659151646779,0.0071785631535345,0.0287285628120063,-0.0120853822964926
0.54,0.0211945900042754,-0.00896893686591955,0.0177763595667003,-0.00103085585646794
0.545,0.0199362099387336,-0.0123124930709457,0.0164828603098802,0.000851994618935099
0.55,0.019068410275063,-0.00165497347160029,0.0253537030089148,-0.00804625814405854
0.555,0.0189542770899029,0.0155041683903868,0.0386955967757071,-0.0227749717917265
0.56,0.01969031320543,0.0279894569250616,0.0480601780414595,-0.0347493986135816
0.565,0.0210380513479978,0.0278138189701838,0.0474053877658868,-0.037112166711058
0.57,0.0224850838621283,0.0152543028957311,0.0366815566133221,-0.028914951511735
0.575,0.0234245760180144,-0.00141138176652632,0.0218801349962756,-0.0155810722252168
0.58,0.0233957866317912,-0.0110833214203144,0.0115788319253623,-0.00543744451221863
0.585,0.0223241655340543,-0.00696958118234191,0.0117634089914632,-0.00463489873406034
0.59,0.0206020202084939,0.00906582004920783,0.0222999518061976,-0.0133691706555482
0.595,0.0189747234668865,0.0275166455535981,0.0372336014734551,-0.025688023566893
0.6,0.0182521480685738,0.0370528762516242,0.0484690103836665,-0.0333852541341074
0.605,0.0189454527222214,0.0316597662473442,0.0506288493717679,-0.0310303030715557
0.61,0.0209900341125813,0.0145123883400563,0.0442296632762538,-0.0193133356576958
0.615,0.0237371882281184,-0.00369381000567934,0.0350646547959786,-0.00467727861034991
0.62,0.0261629863952445,-0.0113195270626217,0.0302547268458301,0.00469855975720508
0.625,0.0272928563750538,-0.00292890291563088,0.0335505794173768,0.00391015137957652
0.63,0.026613114299622,0.0170699546987881,0.0429076867556512,-0.00579701130073913
0.635,0.0242827894278154,0.0369932663849899,0.0518883693563548,-0.0179505673231068
0.64,0.021055024243275,0.0448190498075796,0.0537821401060585,-0.0249798166310907
0.645,0.017986145956726,0.0355891933371499,0.0462110185144429,-0.0230241696974746
0.65,0.0160164519770728,0.0145076408008937,0.0329102031152135,-0.0142565667521291
0.655,0.0156500571791795,-0.0061872796964291,0.0215521013310676,-0.00529286400915891
0.66,0.0168468500383968,-0.0146125218251552,0.0189923617137224,-0.00289580684239989
0.665,0.0191233086787256,-0.00668774369785229,0.0268845111084943,-0.00947058034811675
0.67,0.021786874705746,0.0114881110492005,0.0402264351448517,-0.0214569545110959
0.675,0.0241769537896044,0.0274299934059982,0.0502584778112752,-0.0316113275500821
0.68,0.02580631526602,0.0302235599427946,0.0498074384837575,-0.0336167917344901
0.685,0.0263932326934588,0.0175706148409559,0.0377487214479096,-0.0262643297507385
0.69,0.0258434796018614,-0.00248436354788559,0.0200203706719497,-0.0142745587207338
0.695,0.0242370240485919,-0.0165197218288788,0.00631967908172415,-0.00537715920879681
0.7,0.0218479447508589,-0.0142252675620295,0.00450890968835469,-0.00533202517044364
0.705,0.019174720924529,0.00465618411783991,0.0159013831123278,-0.0140555602079715
0.71,0.0168948318536918,0.0296545570900315,0.0344983408027121,-0.0254915914404912
0.715,0.0157194637678093,0.0457070014167064,0.0505099582892796,-0.0313726651459187
0.72,0.0161500304330533,0.0422996145003138,0.0560707960852228,-0.0266688807874888
0.725,0.0182368213265026,0.0204222747139165,0.0496685035994079,-0.013028004700585
0.73,0.0214698738253327,-0.00752722150949742,0.0369794040902584,0.00171762688459596
0.735,0.0249048112797015,-0.0248312948176091,0.0271167343190677,0.00820065191868652
0.74,0.0274712465564549,-0.02059456984447,0.0268455793702538,0.00149982137963163
0.745,0.0283602110213219,0.00346809448680963,0.0364955824733321,-0.015461439165146
0.75,0.0273515153333048,0.0337939452382806,0.0497978788158597,-0.0331352807348604
0.755,0.0248692999237581,0.0528842063879173,0.0576584713295717,-0.0408004257382604
0.76,0.0217875260839748,0.049796591668827,0.0539944388818368,-0.0330647400699162
0.765,0.0190768345829149,0.0267775363782532,0.0397128840341321,-0.0136003393540571
0.77,0.0174462186934614,-0.00204532535104728,0.0222416278749852,0.00658726074661968
0.775,0.0171336414937433,-0.019254554592978,0.0113368352788542,0.0153775815117695
0.78,0.0179402722198363,-0.014817967492976,0.0131410940316938,0.00657713259351888
0.785,0.0193992477171571,0.00765923652070626,0.026415091712291,-0.0161055650924289
0.79,0.0210231983246065,0.0330918064628001,0.0431404484308387,-0.0408721802446333
0.795,0.0224483355237965,0.0442128933880921,0.0533565460631869,-0.0544654075355318
0.8,0.0234791310000141,0.0323932627551718,0.0511069356152011,-0.0496520385906563
0.805,0.0240285823250175,0.0033132898361896,0.0379780260378369,-0.0293636465793919
0.81,0.0240863242828482,-0.0260873133413057,0.0220916910981331,-0.00500511997006993
0.815,0.0236943836818191,-0.0376247816442086,0.0131048226330959,0.0102402552482757
0.82,0.022971492923108,-0.0230615106843623,0.0162179102419793,0.0090026617751291
0.825,0.0221305418480495,0.0107104632072169,0.0289476965321855,-0.00627339418405432
0.83,0.0214307138955361,0.0453450959453378,0.042850294857506,-0.0250123002672098
0.835,0.0210448070095912,0.0617877412096467,0.0488223313688146,-0.0350522727560289
0.84,0.0209661225070298,0.0514185747429696,0.0429055893447299,-0.0301213766174028
0.845,0.0210043523863141,0.0211890677637283,0.0290889037843259,-0.0133445539866789
0.85,0.020895571586155,-0.0106224986049469,0.0170925788418727,0.00482084431674016
0.855,0.0205083447961207,-0.0255430748900421,0.0162295942295917,0.0129408265169265
0.86,0.0199797174762079,-0.0158694086841344,0.029436982080369,0.00569757943130482
0.865,0.0196976600378062,0.0109204922622281,0.0511754366021074,-0.0128713666929906
0.87,0.0200922116612114,0.0369786386677092,0.0701131408114243,-0.0320148847269781
0.875,0.0213423759839589,0.045299917329801,0.0756120532404651,-0.0408453493322871
0.88,0.0231641633700937,0.0304100524535999,0.0641754131368439,-0.0347753376209735
0.885,0.0248625592650344,0.00172400225605465,0.0413916793726352,-0.0183498059370959
0.89,0.0256374935607479,-0.0220469945123866,0.0187218839797358,-0.00223014054204188
0.895,0.0249954795559124,-0.024652298583413,0.00702461184474059,0.00353946769108723
0.9,0.0230681764220393,-0.00264560412182143,0.010342539880867,-0.00439134908074666
0.905,0.0206283857952744,0.0320787927103354,0.0237700811715662,-0.0207955834666234
0.91,0.0187437135677997,0.0591524864920318,0.0370371271853949,-0.0351619364453142
0.915,0.0182703620074743,0.0618687614480095,0.0410474596324461,-0.0384077690990458
0.92,0.0194228290392607,0.0373875197722876,0.0334021838878487,-0.0286886781170977
0.925,0.0216571196401912,-0.00125491821991355,0.0198780746305961,-0.0124464372250999
0.93,0.0239421974784685,-0.0328117059321822,0.0106965113941246,-0.000399776326323927
0.935,0.0252712114490605,-0.0403018470258602,0.0138312022454553,-0.000747895868862314
0.94,0.0251348223092716,-0.0209918575852993,0.0296620190052017,-0.0138064674319842
0.945,0.0237387690677118,0.012276324870858,0.0504950447369752,-0.0315735930127792
0.95,0.0218350964254351,0.0391443937182553,0.0648790932560597,-0.0424647121581223
0.955,0.0203023356644813,0.0441942795795697,0.0643459110096775,-0.0383895516469044
0.96,0.0197101740317488,0.0261926621844403,0.0487575185819962,-0.0198931923261519
0.965,0.02008617221641,-0.00143270097265519,0.0266494846521597,0.00387874860521753
0.97,0.0209926492359874,-0.0192046516055673,0.0101813411704474,0.0204148556266842
0.975,0.0218557200364257,-0.013968816884928,0.00822400045528881,0.0210895867311936
0.98,0.0223048966529451,0.0127239097403034,0.0213067173328006,0.00621464669698938
0.985,0.0223550393095428,0.0453269024272408,0.041339136958202,-0.0152696892681437
0.99,0.0223328203417946,0.0637245625306659,0.0566189234160961,-0.0312729228130184
0.995,0.0226063923709524,0.0554961558912805,0.0589189266269131,-0.033676091470098
1,0.0233020308682107,0.0237980299173572,0.0481324820143194,-0.0230772718478031
1.005,0.0241852377823905,-0.0142310908153707,0.0320167444031679,-0.00810920093405316
1.01,0.0247659251813268,-0.0375781288013432,0.0212998829364233,0.000195070966490568
1.015,0.0245600390100284,-0.0337271772991268,0.0227927169356268,-0.00476398460301912
1.02,0.0233828182082946,-0.00594617288148212,0.0350813155109295,-0.0209270673968306
1.025,0.0214861094292766,0.0288468076862186,0.0494849845531716,-0.0388352021296052
1.03,0.0194672929318659,0.0503366670156585,0.0555193225858014,-0.0474869238683113
1.035,0.0180135303303224,0.0469529479429551,0.0474552545077265,-0.0411811666996912
1.04,0.0176120086720405,0.0224135405943926,0.028187070488216,-0.0230618405793229
1.045,0.0183481040546543,-0.00686234286499655,0.0079076587194306,-0.00334282310476234
1.05,0.0199092678332164,-0.0220536683947469,-0.00191066305017122,0.00679814114345387
1.055,0.0217484295292186,-0.0136122824255757,0.00466694746561824,0.00210741766616675
1.06,0.0233154608258077,0.0130560534206949,0.0245799153588286,-0.0135895984186589
1.065,0.0242687269859205,0.0410704886501642,0.0475123623656682,-0.0297460789698775
1.07,0.0245364233822564,0.0524139483560162,0.0618139962828929,-0.0354692678539303
1.075,0.0242423887090596,0.0391357712844555,0.061292449729904,-0.0262455739831837
1.08,0.0235943498253111,0.00833179185505551,0.0485756469911492,-0.00680686563022265
1.085,0.0227591187085952,-0.0220404862950262,0.0329885438517378,0.0116358686084737
1.09,0.0218098942791763,-0.0338957887416752,0.0246700024889021,0.0181175371470403
1.095,0.0207791256060779,-0.0199377677193885,0.0284473592993264,0.00847618157869214
1.1,0.019754510436881,0.011954038772095,0.0410014100281375,-0.0119658618221937
1.105,0.0189216268769824,0.0434443552118394,0.0531800788171311,-0.031545515587468
1.11,0.0185556151066643,0.0565619133182546,0.0559695720374389,-0.0391819127137113
1.115,0.0189057098963121,0.0443214482664695,0.0461760312554373,-0.0308531242771986
1.12,0.0200724701564921,0.0147287716269154,0.0283889213545978,-0.0121159724059185
1.125,0.0218801086982029,-0.0142065292557959,0.0122993082650108,0.00521509302823631
1.13,0.0238881274126443,-0.0254206036303048,0.0068023960607078,0.010162566362575
1.135,0.0254909400920586,-0.0129296589681082,0.0145184797203579,-0.00107344821732398
1.14,0.0261251351827576,0.0148493333470674,0.0303196968435216,-0.0228661612047629
1.145,0.0254856104693257,0.0404192609103854,0.044673110078692,-0.0434146286799853
1.15,0.0236500410497448,0.0479675683963324,0.0493415440177275,-0.051633249158035
1.155,0.021091436296591,0.0329376132706526,0.0423440489380142,-0.0435859769289111
1.16,0.0185439050036651,0.00469385115438108,0.0291729439143156,-0.0243912123453008
1.165,0.0167630197494836,-0.0193217831093198,0.0192457296435128,-0.00498014153460053
1.17,0.0162812996567143,-0.0243610715881943,0.0198905055462,0.00434864537813778
1.175,0.0172299358513604,-0.0072679244019955,0.0318276833675401,-6.52113847124792e-05
1.18,0.019287992638794,0.0217419679081144,0.048672964440985,-0.013518903334438
1.185,0.0217883746487783,0.0453624743397572,0.0605130910927185,-0.0263375920199094
1.19,0.023935753147403,0.0498317054144277,0.0599978760511707,-0.0299942844038479
1.195,0.0250707609108629,0.0331994456376789,0.046874675458263,-0.0222589538421302
1.2,0.0249011389173317,0.00626942104842798,0.0282228074195278,-0.0083241441313459
1.205,0.0236069795280244,-0.0142652517788579,0.0142898974925345,0.00264231399903725
1.21,0.021760880188256,-0.0162676995544544,0.0126675134561695,0.00349563163785276
1.215,0.020117599802319,0.000439048279274284,0.0236917424349187,-0.00643420309421286
1.22,0.0193197870221554,0.024179236872702,0.0403272613211278,-0.0209909280430359
1.225,0.0196343878190105,0.0389302995029475,0.0524398538595978,-0.0311809562779485
1.23,0.0208420637606811,0.034373849929673,0.0527386505787412,-0.0309302278762147
1.235,0.0223452493686338,0.012498154676337,0.0410600555068879,-0.0210114741629151
1.24,0.0234210234375251,-0.0134413058471345,0.0243296282304492,-0.00851922380354674
1.245,0.0235588003815079,-0.0272473160126769,0.0123628687712556,-0.00234340409313753
1.25,0.0226985183346306,-0.0198399556471428,0.0118000918196529,-0.00736360589356483
1.255,0.021269622172234,0.00507184981841421,0.0223166427744475,-0.0211412046608652
1.26,0.019994017812417,0.0330447096535981,0.0369725256986035,-0.0352180139290404
1.265,0.0195577422409188,0.0477416055523593,0.0466626710745596,-0.0403238350472128
1.27,0.0202878349372153,0.040888899554991,0.0457720967306955,-0.0322196307057694
1.275,0.021984219010969,0.0173153027588406,0.0356866419318606,-0.0147261191108687
1.28,0.023997552377988,-0.0078740013500352,0.023826640777123,0.00237084749995524
1.285,0.0255101411660322,-0.018684209267407,0.0188247507047061,0.00914262480177471
1.29,0.0258727402425074,-0.00805305813013425,0.0250533088465686,0.00154422233408338
1.295,0.0248694731474004,0.0177857010346614,0.0397471102250007,-0.0159457005254694
1.3,0.0227843627306578,0.0429490477716042,0.0547088958386105,-0.0329313744881148
1.305,0.020273921729108,0.0516495510047699,0.0613147637721469,-0.0392839656674287
1.31,0.0181064131943004,0.0379037818879584,0.0560212304974302,-0.0313427492701633
1.315,0.0169190367594827,0.00933750908214733,0.0425077795610501,-0.0140717869926702
1.32,0.0170434075038383,-0.0173294841221024,0.029305427149013,0.00190439254485997
1.325,0.0184563808003855,-0.0264223435025662,0.024294533475687,0.00677608727303817
1.33,0.0208304756296465,-0.0128085530289317,0.0297171837591221,-0.00243955106975209
1.335,0.0236122165611811,0.0149783107769319,0.0405657849723996,-0.0201245982780565
1.34,0.0261184259131485,0.0398186492252685,0.0478518973033375,-0.0354803757562633
1.345,0.0276570858399832,0.0464874630376505,0.0444227306262806,-0.0392263300884238
1.35,0.027681449119382,0.0310106822783055,0.0298206841413856,-0.0292819446694448
1.355,0.0259887313201624,0.00308846996263502,0.0111054730155226,-0.0120161592815719
1.36,0.0228733047714203,-0.0199358735066377,-0.00106591063127134,0.00173725098749238
1.365,0.0191451690134104,-0.0237612363217204,0.00118819399089027,0.00336416599300464
1.37,0.0159636195729966,-0.00615563722513856,0.0180014651142443,-0.00807846146782328
1.375,0.0144537478201498,0.0215991882312432,0.0414589059030738,-0.0252360675540121
1.38,0.0152579309128831,0.0417529436566374,0.0599411611506804,-0.0370049970558783
1.385,0.0182254455604014,0.0409964670722293,0.0646878442544293,-0.0353674254784902
1.39,0.0223844325628947,0.0191350002050616,0.0547860755995374,-0.0205154037249227
1.395,0.0262861079433957,-0.0103612460176138,0.0375134783614524,-0.000950227151531197
1.4,0.0285654111545917,-0.0285545976718561,0.0237875166765907,0.01168041239695
1.405,0.0284935336524662,-0.0225892416155337,0.021637337153606,0.00964212961204181
1.41,0.0262699321029988,0.00606921507165785,0.0315611600043071,-0.00606838364705962
1.415,0.0229148179490985,0.0420395360935015,0.0463800620248853,-0.0260281869043699
1.42,0.0197963300673891,0.0650365443359667,0.0558976582240847,-0.0380633112939528
1.425,0.0180353696021563,0.0619359314058032,0.0532992074569056,-0.0346876200233957
1.43,0.0180849689936882,0.0346482259030546,0.0394906486463741,-0.0176705038114959
1.435,0.0196215543774688,-0.000883228261685422,0.0226560023535184,0.00271628904860679
1.44,0.0218000465019564,-0.0243553896854432,0.0132677107845853,0.0136146765024529
1.445,0.0236933304525045,-0.0232215062098962,0.0176352800611908,0.00744862048053682
1.45,0.0247036935296606,-8.44783557905747e-05,0.0338002876859805,-0.0135148226120444
1.455,0.0247083368242199,0.0292033634494815,0.0524547818225091,-0.0382333734170884
1.46,0.0239742614915717,0.0454158387178377,0.0623727550764831,-0.0530783913948612
1.465,0.022880986969249,0.0378134693418349,0.0572054255458687,-0.049712585735482
1.47,0.0216871639053114,0.0109514143005873,0.03937807557177,-0.0299084688999154
1.475,0.020460690863049,-0.0182749054888341,0.0189118271352024,-0.00438521814046139
1.48,0.0191824247788654,-0.0309953261048081,0.0074624672610843,0.0134003805867156
1.485,0.0179354482059481,-0.0181559009615677,0.0113313460059146,0.0149715744814153
1.49,0.0170326204253997,0.013724297245411,0.0277113065324785,0.00138463425206092
1.495,0.0169397887623278,0.0461590466164256,0.0463712056043911,-0.017838814993521
1.5,0.0180407278782517,0.059792076716877,0.0558890954711231,-0.0307361469346781
1.505,0.020350656534969,0.0460791302438104,0.0506782552508757,-0.0300126939570914
1.51,0.0233635249228244,0.0126430301439658,0.034485073346855,-0.0172484565522091
1.515,0.0261636683890394,-0.021088149791008,0.0181012105273012,-0.00136869942890807
1.52,0.0277558092028001,-0.0354006621258083,0.0127853088210079,0.00720043570988651
1.525,0.0275070821115188,-0.0220391544748656,0.0230726864908811,0.00297715694746126
1.53,0.0254684218374681,0.0108269725132389,0.0438054885233444,-0.0112660946881698
1.535,0.0223922502123224,0.0435914453744758,0.0629930651772222,-0.0264295512452224
1.54,0.0194409890430237,0.0568967520820199,0.0689372812780322,-0.0331449969910249
1.545,0.0177041600198924,0.0433457354739081,0.0573361987034633,-0.0277871314009177
1.55,0.0177544569541229,0.0119405332412053,0.0340849792139213,-0.0145868585265755
1.555,0.0194350828697753,-0.0174195829274608,0.0119212306562599,-0.00306123803068438
1.56,0.0219716134180774,-0.0261163826212838,0.00284901236470045,-0.00181022939593535
1.565,0.0243564443274396,-0.0082942777162009,0.0112489045824979,-0.0127240004819031
1.57,0.0257684540086686,0.0254787428643923,0.0312887361242134,-0.0295302534467574
1.575,0.0258752257820157,0.0543749967138105,0.0506374531980847,-0.0416699394941782
1.58,0.0248737461632115,0.060008225485146,0.0578368294379306,-0.0407241829778533
1.585,0.0232941407582479,0.0377914607310855,0.0493313887635584,-0.0260011868512807
1.59,0.0217098780832912,9.79716718872743e-05,0.0312859666440658,-0.00552496440633114
1.595,0.0205143346071844,-0.0309253600222743,0.0157095091373742,0.00863820850675839
1.6,0.0198299581027656,-0.0367459011100219,0.0130083592500734,0.00775807276727911
1.605,0.0195808571678325,-0.0137458652426452,0.0254805420667436,-0.00816379201915744
1.61,0.019618497651922,0.0244653302991384,0.0458465211463648,-0.0298669899848333
1.615,0.0198408906435393,0.054926495813956,0.0617056206783192,-0.0440066483145095
1.62,0.0202158869660899,0.0590803664348958,0.0631369715135931,-0.0411971174802126
1.625,0.0207518489635284,0.0342355952319008,0.0486803448846722,-0.0218616089772073
1.63,0.0214539276518909,-0.00484229852887865,0.0265762199545061,0.00368763717363255
1.635,0.0223210607255873,-0.0347138413074626,0.00965305070636415,0.0209099457219537
1.64,0.0233367799335266,-0.0373018297619546,0.00758653354388984,0.0194561481849434
1.645,0.0244640765777516,-0.0109549769833684,0.021044895204007,-0.000479048199741717
1.65,0.0256019169269451,0.0285527146042688,0.0412530173647852,-0.02816499239955
1.655,0.0265236857714815,0.0575657885309231,0.0551914784199362,-0.0483735825217996
1.66,0.0268694179156566,0.0588374237027122,0.053705020839814,-0.0501448142029167
1.665,0.0262447854349462,0.0319146000562581,0.0372533200124266,-0.0331416654139906
1.67,0.0244307576076541,-0.00656797741257584,0.0157676584555681,-0.00788269367653748
1.675,0.0216051823713042,-0.0331076608608094,0.00277058443213918,0.0105192464983315
1.68,0.018425764091955,-0.0316128565420238,0.00722047330221303,0.0111841848443205
1.685,0.0158862197016166,-0.00318470702469377,0.0278588705965959,-0.00625631282777111
1.69,0.0149505724091823,0.0346617874985024,0.0537246927591775,-0.0314695912952683
1.695,0.0160976489620415,0.0586933303846289,0.0705647012940935,-0.0497825724994006
1.7,0.0190418005427073,0.0541182153538572,0.0691586654142838,-0.0507603477449621
1.705,0.0227604611479555,0.0237411329402583,0.0507574084405368,-0.0342570057416544
1.71,0.0259028441344609,-0.013828205867631,0.0263067256070825,-0.0103310504491446
1.715,0.0273782438833013,-0.0355023394486319,0.00977084017546269,0.00710263675933802
1.72,0.0268492655007569,-0.0277092935013932,0.00983790680003802,0.008552851353319
1.725,0.0248910093758207,0.00537214719852761,0.0249528154815896,-0.00558641196073598
1.73,0.0226964705857882,0.0442282600259825,0.0444800064665255,-0.0254884096533653
1.735,0.0214817851622919,0.0658831482191295,0.055457806910696,-0.0382322739357905
1.74,0.0218811785139889,0.0575869035700849,0.0505963944529498,-0.0357400561212913
1.745,0.0236445947285302,0.0244722405583222,0.0327080595323339,-0.0195067263252878
1.75,0.0257649898074219,-0.0137270296424444,0.0129417713113223,0.000560182308936838
1.755,0.0269740280110916,-0.0346788531021442,0.00389513159972512,0.0122370946748288
1.76,0.0263707620229451,-0.0269014677453238,0.0119079883872251,0.00860104705331554
1.765,0.023851284167433,0.00360688493260037,0.0332988981992077,-0.00786569632626475
1.77,0.0201545165039433,0.0372028910160159,0.0564768352888875,-0.0271356920508842
1.775,0.0165221561471284,0.0526344567058588,0.0689296676101937,-0.0378125426405536
1.78,0.0141845784977757,0.0400373725983202,0.0644756900192766,-0.0341000593367554
1.785,0.0138868002876642,0.00678315062763669,0.0466670857683241,-0.0192245699707212
1.79,0.0156785608737134,-0.0270897307238529,0.0262826711696766,-0.0031169918304924
1.795,0.0189772240027135,-0.0410138025658161,0.0146827294272258,0.00390516311870111
1.8,0.0228512461195907,-0.0261326674948781,0.0170068676504686,-0.00251510392952831
1.805,0.0263303469536242,0.00944910246781012,0.029527107892628,-0.0182172641465061
1.81,0.0286288632563948,0.0457951152237688,0.0423380696587184,-0.0332060548803876
1.815,0.0292626113612758,0.063003941820336,0.0457712592128231,-0.0380132896179899
1.82,0.028102271111091,0.0528985761673232,0.0366349686463186,-0.0296134282758258
1.825,0.0253821431534712,0.0233355856676884,0.0201470015153514,-0.013225115129686
1.83,0.0217026419890574,-0.00707792779976764,0.00683574999047329,0.000873038414773663
1.835,0.0179786527922459,-0.0206252229813389,0.00611218890329331,0.00376388997101661
1.84,0.0152412888629146,-0.0109638960524382,0.0204796046044839,-0.00665379002332711
1.845,0.0143589859002311,0.013576521031106,0.0438546123983462,-0.024417829289645
1.85,0.0156982640754608,0.0356438985969451,0.0649582671574838,-0.0390318549458011
1.855,0.0189330362978767,0.0400493796530797,0.0736438598626231,-0.0418056622505784
1.86,0.0231035504972529,0.0232867762288365,0.0665282804775679,-0.0310667183439069
1.865,0.0269187907681013,-0.00432450822079406,0.048535995669487,-0.0129276711551628
1.87,0.0292190002108379,-0.0250348903195807,0.0297305437232533,0.0025219723742356
1.875,0.029381501238445,-0.0247043511673481,0.0193525186570169,0.00721255298583153
1.88,0.0275034381415304,-0.00155216675462926,0.020584366282846,-5.37883813817869e-05
1.885,0.024294890630442,0.0325761231063482,0.0294216177201486,-0.0131800138426394
1.89,0.0207492361009856,0.0590154955538771,0.0377499290439294,-0.0228474373369987
1.895,0.0177989373889195,0.0631613712105077,0.0387701357316376,-0.0224195382327851
1.9,0.0160578249746377,0.0428075350964076,0.0313689116157198,-0.0120624561031933
1.905,0.0157553243435332,0.00911360600124463,0.0209536065984143,0.00119509087160867
1.91,0.016797889242337,-0.0201847003439897,0.0157019691176891,0.00786771145691838
1.915,0.0188648132960676,-0.0310819761963414,0.0212814596926011,0.00200281283051275
1.92,0.0214733068223824,-0.0209159424143678,0.0369311302727228,-0.0149695569778092
1.925,0.0240182859777365,0.0010640676375499,0.0553575300168962,-0.0347408261765263
1.93,0.0258345505170705,0.0199889887610333,0.0666110950900623,-0.0467330807188948
1.935,0.0263493546976542,0.0248161901132487,0.0639307854290164,-0.0442438893084648
1.94,0.0253085671232664,0.0148189604606505,0.0477664301625879,-0.0284179140343396
1.945,0.0229584661998607,-0.000584992952441998,0.025472928466775,-0.00766923904056083
1.95,0.0200617605050423,-0.00834588343022608,0.00748232679935835,0.00707330728550264
1.955,0.0176697529886331,-0.000309211550301288,0.00162131515144428,0.00839482996986495
1.96,0.0167115172214995,0.0213445319530224,0.00905825569810061,-0.00336933785136302
1.965,0.0175860490105963,0.0450691479357047,0.0242050797176482,-0.0208440166825184
1.97,0.0199506619510818,0.0569014689304552,0.0385528593021843,-0.0339764244227937
1.975,0.0228463098580251,0.0488014463188247,0.0456877977450646,-0.0357649672052169
1.98,0.0251101724273031,0.0237111551523877,0.0447108508398247,-0.0263480131322451
1.985,0.025901081675007,-0.00598389737166382,0.0401528919039555,-0.0123388460774917
1.99,0.0250557950552049,-0.0255401493018298,0.0383401529891519,-0.00264737007103476
1.995,0.0231260016618835,-0.0260861060285877,0.0428389807818805,-0.00315193820794182
2,0.0210827044117131,-0.00930917854006161,0.0519746789979759,-0.0132306486494135
2.005,0.019829198304382,0.0140042408046959,0.0597740891326887,-0.0262490399550797
2.01,0.0197904416132262,0.0307424567808198,0.0596220788078125,-0.0337640877731576
2.015,0.0207636826580337,0.0331560260836247,0.0486380926710008,-0.0307400134052603
2.02,0.022089047635626,0.0229315761975284,0.0299830026806407,-0.0181979516399553
2.025,0.0230242245941909,0.0094261551641499,0.0112734615378215,-0.00279260542571939
2.03,0.0231523363215032,0.00315389042717824,0.000486549904037559,0.00723574865631303
2.035,0.0225433935740619,0.00897924584321166,0.00184143219568118,0.00700069358899841
2.04,0.0216774683553409,0.0228939047419791,0.0135518744036259,-0.0026624557312197
2.045,0.0211466254003052,0.0346268235279032,0.0291100324273648,-0.0159809157128126
2.05,0.0213103548897635,0.034383918689208,0.0413345145984405,-0.0258806541384712
2.055,0.0220984982410659,0.0192753427246085,0.0462724935530772,-0.0281955089642549
2.06,0.0230723181047275,-0.00435201110257717,0.0447663558197901,-0.0238262099767041
2.065,0.0236603295360825,-0.0243068551403531,0.041272836803943,-0.0175331906602297
2.07,0.023469782331321,-0.0297518390804328,0.0404145128426272,-0.0143677254333961
2.075,0.0224996598832331,-0.0174530317339036,0.0436783582776636,-0.0164259785659243
2.08,0.0211197860985613,0.00625867132977325,0.0484144504037377,-0.0213708646966675
2.085,0.0198695615746031,0.0292288295806896,0.0497936249711209,-0.0242965371616805
2.09,0.019208555848756,0.0406538306126312,0.0441761235913605,-0.0213846374156229
2.095,0.0193020588669919,0.0372416068592738,0.0320335943422688,-0.0126645574474376
2.1,0.0200068446446146,0.0244868602010866,0.0183202747074387,-0.00251894477206544
2.105,0.0209918742024804,0.012609530115231,0.00992271555072776,0.00284520738072543
2.11,0.0219330081500766,0.00985329529888705,0.0115907593388525,-0.000650638424761199
2.115,0.0226371520670548,0.0170965881580933,0.0231107489636068,-0.0121640939556575
2.12,0.0230670832383892,0.0275338224011961,0.039173041875993,-0.0260923626570147
2.125,0.023251137337178,0.0313802779146764,0.0521173624483438,-0.0352953725874434
2.13,0.023201526136476,0.0225230787542108,0.056195511286515,-0.0353040993257602
2.135,0.0228959906397547,0.00301847769428648,0.0507827175572523,-0.027119395954748
2.14,0.0223409975060097,-0.017475909405628,0.0403336039543395,-0.0165179273007363
2.145,0.0216624802981265,-0.027384055601451,0.0314576056648072,-0.0104577910442331
2.15,0.0211345354435938,-0.0201857751985932,0.0289190735914843,-0.0126630615649012
2.155,0.0210810385880897,0.00139417143014755,0.0326598921935812,-0.0210711521793675
2.16,0.0216748374736372,0.0266957698432506,0.0380407201812942,-0.0290801804167124
2.165,0.0227888101738813,0.0430823436517689,0.0391392122221465,-0.0295907688486346
2.17,0.0239740197291883,0.0432418840633986,0.0328098789069394,-0.0197112701771553
2.175,0.0246396689621062,0.0292641723977905,0.0210604037831965,-0.00306780238607495
2.18,0.0243437382889798,0.0107814582349276,0.0103176148743615,0.0119263650937844
2.185,0.0230593028270874,-0.000967372693881056,0.00765720194122969,0.0167683710768907
2.19,0.0212424776514306,3.13571644290574e-05,0.0164515890931016,0.00796422407555063
2.195,0.0196359041655753,0.010935023716623,0.0340728498746547,-0.0107214142915779
2.2,0.0189075328167549,0.0222513054254185,0.0530092274875804,-0.030114106789451
2.205,0.0193159184905517,0.0241738777890946,0.0648879235656588,-0.0406969816902629
2.21,0.0205845938959878,0.013031208937433,0.064979965838368,-0.0379790823703818
2.215,0.0220290897072063,-0.00588486841385552,0.0545878613244164,-0.0248233578691467
2.22,0.0229289949747022,-0.0212817913725675,0.0398960898953439,-0.00963549316217431
2.225,0.0229029835011147,-0.0226964137765313,0.0282274030073156,-0.00141459315931533
2.23,0.0220698444683456,-0.00696455545435849,0.023754016163909,-0.0044897805063303
2.235,0.020973048654413,0.0194102286424387,0.0256547445656264,-0.016251030881698
2.24,0.0202638022855489,0.0436207201276991,0.0292506501472758,-0.0289391421202669
2.245,0.02034254762222,0.0537778534794045,0.029545206466094,-0.0344389820766399
2.25,0.0211802537314225,0.0456271476268246,0.0247717675154435,-0.0292140005794359
2.255,0.0223482591247074,0.0247774059559493,0.0177330914090596,-0.0163028316509923
2.26,0.0232695194776638,0.00318990706682499,0.0140240555269601,-0.00345157679481149
2.265,0.0235201150281393,-0.00789219346559825,0.0182968443088167,0.00160632805001643
2.27,0.0230001504892618,-0.00437693154077903,0.0311569205351933,-0.00430687407743504
2.275,0.0219282725734921,0.0087305631183479,0.0481818488444347,-0.017935138813642
2.28,0.0206852612301229,0.0208729607836309,0.0620926225833921,-0.0315420675358944
2.285,0.0196137777685802,0.0228484804874293,0.0667538637229174,-0.0375312658110804
2.29,0.0189095096067453,0.0125792938293287,0.0606098357355648,-0.032564202772194
2.295,0.0186251934348788,-0.00353180206583884,0.0472802892548189,-0.0194793211259043
2.3,0.0187701805939146,-0.0145989923602194,0.0334357039773275,-0.00540100429376156
2.305,0.0193904451189055,-0.012133494193436,0.0250339478553079,0.00265787555204226
2.31,0.0205546218727056,0.00459232311720315,0.0239833452293375,0.00156772028660207
2.315,0.0222601863139284,0.0277138134082346,0.0274791182156406,-0.00638816872606345
2.32,0.0243066296838835,0.0450666222233407,0.0302543296409015,-0.0152861919325563
2.325,0.026259466991925,0.0472444563573094,0.0282501110328347,-0.0194583420874007
2.33,0.0275475560860607,0.0331086612615562,0.0213190650696808,-0.0169794692135001
2.335,0.0276732439367002,0.0102911847433484,0.01370758993329,-0.0106473073657992
2.34,0.0264282005163934,-0.0091484542179251,0.0113829965120968,-0.00585656973042927
2.345,0.0240314420492753,-0.0155833530581545,0.0181779861262922,-0.00727305165771461
2.35,0.0210680393580458,-0.00719272556558126,0.0331413526254659,-0.0154887509625536
2.355,0.0182958159564889,0.00928228053525926,0.0506325145489329,-0.0265834953542102
2.36,0.0163729422954649,0.0229172045847097,0.0629667194681967,-0.0345826358475831
2.365,0.015656000195058,0.0252469947108102,0.064737178270674,-0.0349046052864632
2.37,0.016109355668822,0.0153032479240998,0.0557506514831472,-0.0272879925429976
2.375,0.0173882969370082,0.000111883656973125,0.0409328636462439,-0.015959314369404
2.38,0.0190186931046264,-0.00957937764717795,0.0276568128403003,-0.007126854540354
2.385,0.020572212417312,-0.00589432764635535,0.0216579127390697,-0.00517989213350932
2.39,0.0217966976981138,0.0112006099827091,0.0241127755093299,-0.0102112391640139
2.395,0.0226459698843823,0.0335317134936889,0.0313393222186601,-0.0181100544678102
2.4,0.0232066065108577,0.0492239248612526,0.0375045536824317,-0.0230551369975828
2.405,0.0236059897504812,0.0494945553199855,0.0383000767607275,-0.0213676188748523
2.41,0.0239182924759692,0.0336962513134977,0.0334825723248863,-0.0137174006539145
2.415,0.0241082459064365,0.00974720971096092,0.0267962238166524,-0.00482487239424396
2.42,0.0240610764597885,-0.0102698469825632,0.0235604775182002,-0.000642703576474842
2.425,0.0236420520587771,-0.0168752679836238,0.0271918767708064,-0.00453230141415377
2.43,0.0227835805537936,-0.00841163369030269,0.0368016188105516,-0.0151925894924954
2.435,0.0215549280525752,0.00830178330697395,0.0477101428150806,-0.0271032348083953
2.44,0.0201977787290745,0.0223324836133976,0.053979650263357,-0.0336794337716437
2.445,0.0190625500992823,0.0251276755584882,0.0518712676692743,-0.0311210907630919
2.45,0.0185188256817894,0.0156075636231344,0.0421187613933203,-0.0205306127753631
2.455,0.0188151616905268,0.000621495087764962,0.0295498831149209,-0.00743549128679445
2.46,0.0199787634697616,-0.00933607404425799,0.0203186045673113,0.0013849016801092
2.465,0.0217549181727378,-0.00652425406273892,0.0185776239289816,0.00171379039031846
2.47,0.0236703733342681,0.00923085292806775,0.0242601377142401,-0.00576121382655095
2.475,0.0251590943952073,0.0301803580563066,0.0332360928572211,-0.0160416669530652
2.48,0.0257473596718713,0.0449854863935143,0.0399815879017617,-0.0228453431019072
2.485,0.0252191637423934,0.0452896947627014,0.0408466367499779,-0.0223236220073846
2.49,0.0236973968812596,0.0304567697785967,0.0361177120457249,-0.0154490112065303
2.495,0.0216189730893436,0.00800431807920313,0.0297374397902455,-0.00724965088890907
2.5,0.0196049898342594,-0.0106820503205691,0.0268511493156601,-0.00386358638336665
2.505,0.0182498205423363,-0.016513501868263,0.030502112339979,-0.00880322658893713
2.51,0.0179267784345977,-0.00785638397765552,0.0396636208667159,-0.0206419043173495
2.515,0.0186784294373698,0.00910114924985436,0.0496644612391403,-0.0337051050868317
2.52,0.0202183944054602,0.0242289055517222,0.0547626635063489,-0.0411008829823951
2.525,0.0220353852434182,0.0293658098274305,0.051473427549317,-0.038541165429298
2.53,0.0235717729628071,0.0228281093805755,0.0406071890306821,-0.0268256509602458
2.535,0.0243863887397167,0.0102194396628222,0.0269044023413251,-0.0114042387663516
2.54,0.0242904898438861,0.000747485186162007,0.0165977105098129,0.000561757294645288
2.545,0.0233364995943956,0.00150737867860327,0.0141242418425681,0.00398128910916559
2.55,0.0217901766364196,0.0131374066142999,0.0198273267957389,-0.00159801796403481
2.555,0.0200561366965,0.0292406792044262,0.0301916735411744,-0.0120973963964322
2.56,0.0185627224018791,0.0401303185831511,0.0399917284999647,-0.021305190370659
2.565,0.0176823404080147,0.0383191321498999,0.045180316227318,-0.0245437344311079
2.57,0.0176712728983185,0.0229755917338357,0.0448477712609741,-0.02099917153273
2.575,0.0185918782972537,0.000650603077982485,0.0413161196601467,-0.0138740583790857
2.58,0.020276758196767,-0.0181408754556433,0.0381890847671589,-0.00830663468106037
2.585,0.0223339842511477,-0.0246089043493641,0.0378821694323435,-0.00816589832058475
2.59,0.0242090643564924,-0.0162352815335876,0.040176838517282,-0.013856715896369
2.595,0.0253628075900836,0.00203886792681491,0.0423535894869588,-0.0221932053601814
2.6,0.0254500386020643,0.02087458626859,0.0410900371355762,-0.0283021469840367
2.605,0.0244688107549641,0.0317392772991674,0.0348008536114764,-0.0285004382217421
2.61,0.0227941742010409,0.0312792388298796,0.0249301601628972,-0.0223197912682328
2.615,0.0210528357856173,0.0226966441565995,0.0153241202076003,-0.012848636375107
2.62,0.0198714606124856,0.013179356480233,0.0104196793355552,-0.00488800044549885
2.625,0.0196122264495321,0.00925702634102655,0.0128127316056262,-0.002374970705598
2.63,0.0202193137331748,0.012829961887232,0.0217239600951122,-0.00641921563137212
2.635,0.0212537287569324,0.0203351539059535,0.0335369020305409,-0.0148678516025345
2.64,0.0221043747323079,0.0252088540881014,0.0437558821037095,-0.0237360401339594
2.645,0.0223029841575965,0.0221955693675914,0.049206827154918,-0.0293692936184372
2.65,0.021754348075356,0.0109640051119743,0.0494209762213931,-0.0303185243493233
2.655,0.0207998896756734,-0.00343133028997106,0.0466315163606659,-0.0276236741329393
2.66,0.0200570378373481,-0.0132510003600838,0.0437668411423783,-0.023732606823683
2.665,0.0201081916840578,-0.0125662822259719,0.0425385167041715,-0.0208836447468437
2.67,0.0211943167526693,-0.000788647912401883,0.0424132709730943,-0.0195854082747401
2.675,0.0230633393043843,0.0169548410167508,0.0411574624925992,-0.01873505051498
2.68,0.0250415854878713,0.0326780788690167,0.0365058351495405,-0.0166616336118757
2.685,0.0263190954788088,0.039695912698933,0.0282478210443239,-0.012583268886484
2.69,0.0263023351889421,0.0361545961726779,0.0188428110465506,-0.00755520350223806
2.695,0.0248847175186342,0.0256288757294837,0.0124187967695072,-0.00391854799787353
2.7,0.0225172882978349,0.0144909305958152,0.0126446278682187,-0.0040515382285553
2.705,0.0200293048267424,0.00794424487948566,0.0204632533338391,-0.00868053207371088
2.71,0.0182927843449276,0.00706847066477527,0.033364942473584,-0.0162098827042999
2.715,0.0178771395946432,0.00872597411609723,0.0464236341291096,-0.02347971661249
2.72,0.0188246639213691,0.00809502694713686,0.0547889592303878,-0.0273820047009764
2.725,0.0206552872684577,0.00236544694534606,0.0559429846977994,-0.0266217996189583
2.73,0.0225957129820586,-0.00694876926613553,0.0506398207587211,-0.0223970034309548
2.735,0.0239057029644414,-0.0144827857496523,0.042104171575263,-0.0176430820331773
2.74,0.0241861732581298,-0.0143118510282026,0.0340381352427545,-0.0150900438835158
2.745,0.0235125279345088,-0.00382540323018745,0.0284671137968966,-0.0156957794287782
2.75,0.0223630706288837,0.0142486038295712,0.0251130458871287,-0.0181084432293427
2.755,0.0213625990312973,0.0327542317384332,0.0224729678819489,-0.0194393398684698
2.76,0.0209931723726961,0.0438801256878398,0.0192424533097128,-0.0174498398471502
2.765,0.0213723152820943,0.0434101355371823,0.0158941385484838,-0.0121224401544081
2.77,0.0222389218121042,0.0329069411171804,0.0148207189926892,-0.00583950553270246
2.775,0.0231044535172008,0.018595376115845,0.0187922178619289,-0.00239762286692015
2.78,0.023512057996122,0.00763056532712877,0.028842017021754,-0.00451393949560991
2.785,0.0232454700833974,0.00389754908393956,0.0431971929388616,-0.0120985759656501
2.79,0.0224258544131049,0.00626395400874072,0.0574619540575394,-0.0219865979116474
2.795,0.0214094564163246,0.00995711328728904,0.0665599035353683,-0.0295147773434641
2.8,0.0205877741150469,0.0101372747715304,0.0673088996248836,-0.03098728902142
2.805,0.0202007365109381,0.00553438171327928,0.0600400208125558,-0.0257726568556913
2.81,0.0202543964141958,-0.000581036265668557,0.0483028381119819,-0.0167043063975318
2.815,0.0205626234341959,-0.00249047522397939,0.0369844902910418,-0.00833332319071933
2.82,0.0208955111772306,0.0038719133603629,0.0296956619519758,-0.00452058987883211
2.825,0.0211181665251746,0.0177058789408046,0.0269457371455112,-0.00625947867633098
2.83,0.0212445655081852,0.0330869317897013,0.0263788553640687,-0.0112437140174262
2.835,0.0213726088907149,0.0421729860790223,0.0247925530942823,-0.0156598402810927
2.84,0.0215844138694898,0.039576404696895,0.0205551184533371,-0.0165898745503019
2.845,0.0218553966177209,0.0257726370024136,0.0149904437773593,-0.0139000475214291
2.85,0.0220590318508512,0.00702889841326192,0.0119366746251056,-0.01038318008842
2.855,0.0220522356827637,-0.00811327609601969,0.0152860756456699,-0.00975608200268471
2.86,0.0217768285772921,-0.0137022868835136,0.0261437450838398,-0.0141378639786366
2.865,0.0213185895202393,-0.00945405483254985,0.0415817821736858,-0.0223988271753838
2.87,0.0208766084193225,-0.00037313845991775,0.0556310288147089,-0.0304628525392333
2.875,0.0206437823565597,0.00677439381308744,0.0621703229977502,-0.0335423729771259
2.88,0.0207125495737774,0.00793408320867693,0.0582386373394332,-0.0290803331921783
2.885,0.0210410539312645,0.00427967521222087,0.0458632986510023,-0.0183931410684391
2.89,0.0215013828110642,0.0013831065526742,0.0310077902409817,-0.00606763518109483
2.895,0.0219694281727079,0.00513419117132579,0.0204760170889556,0.00235123838301484
2.9,0.022406132972585,0.0174323194780041,0.0183990308010096,0.00352926280873847
2.905,0.022846664977724,0.0343331571960004,0.0242255098727207,-0.00196716548472662
2.91,0.0233299820235363,0.0478729332699876,0.0334759827236465,-0.0102840832115013
2.915,0.0238161562997967,0.0504963792358589,0.0407057077967671,-0.0165916017858368
2.92,0.0241541446517679,0.0396986466325514,0.0427164775143631,-0.0180125200114853
2.925,0.0241452280913407,0.0196754659613511,0.0402106391583907,-0.0152998119084905
2.93,0.0236569355205601,-0.000683080406316942,0.0370507533382656,-0.0119663852037604
2.935,0.0227088728826402,-0.0126124883297404,0.037395556831618,-0.0120232811433197
2.94,0.021498249129684,-0.0122009395247374,0.042660056501972,-0.0173066514586223
2.945,0.0203194906180157,-0.00221154536271766,0.0504027975709421,-0.0261319253343228
2.95,0.0194353981990957,0.0100096731843498,0.0555723986073391,-0.0341605445647449
2.955,0.0189877412514206,0.0170929647605025,0.0536045025405481,-0.0369049886597809
2.96,0.018974645967629,0.01593835149737,0.0432559245499674,-0.0323684078770925
2.965,0.0193028467677494,0.00938579679836964,0.0277457671526444,-0.0221114223148192
2.97,0.0198672549323037,0.0040122989313604,0.0132318315599187,-0.0105339083004218
2.975,0.0205861085335563,0.00562114108250795,0.00559431278649977,-0.00236033307726346
2.98,0.0213709423089064,0.0153418988078168,0.00741666246472457,-0.000132128335986576
2.985,0.0220803574944033,0.0285458020753898,0.016966310191978,-0.00322144102029838
2.99,0.0225100603562197,0.0373207587989948,0.0293412952508082,-0.0085389102092862
2.995,0.0224606009749189,0.0352300403453603,0.0393750570202944,-0.0126357292923123
3,0.0218749595845812,0.0212853328291295,0.0444131249350039,-0.0137763280985194
3.005,0.0209490827794923,0.00106380639142923,0.0452346689428321,-0.0127705332865869
3.01,0.0201271353905629,-0.0160595377458226,0.044867889461962,-0.0120696862560276
3.015,0.019930531811611,-0.0220285800527465,0.0461735753913051,-0.0137876163963158
3.02,0.0207174726261234,-0.0143981728272364,0.0496232988756316,-0.0182121347691748
3.025,0.0224224691182583,0.00250598630762014,0.0527909236389781,-0.0232094342772763
3.03,0.0245173261260114,0.0200317401860135,0.0519613146506216,-0.0256486372404958
3.035,0.0261896335681038,0.0300992799198761,0.0445281242670192,-0.0235295385963127
3.04,0.0266834665104628,0.0296411609615747,0.0311456524660842,-0.0172841062217705
3.045,0.0256714138100005,0.021926935601159,0.0160321183182682,-0.0101068195562626
3.05,0.023445297964635,0.0141329502532235,0.00511263490539194,-0.00616458810057059
3.055,0.0207986474372728,0.0126754840756871,0.00312251480553361,-0.00821481240366831
3.06,0.0187007632557694,0.0189142399030199,0.0111026391678493,-0.0158844532769556
3.065,0.0178440452764201,0.0282787444023811,0.0258309458310407,-0.0256898678939569
3.07,0.0183499510125495,0.0330006592508957,0.0413907244329145,-0.0327822321190767
3.075,0.0197457592135566,0.0269796970683022,0.0521038969409067,-0.0335989719787671
3.08,0.0212333277902302,0.0101356334120753,0.0551893096398697,-0.0281115008022694
3.085,0.0220971585229938,-0.0108031264232408,0.0518949470375434,-0.0196604319532212
3.09,0.0220794230587224,-0.0256407016747628,0.0461314336527885,-0.0131630269781739
3.095,0.0214713589233608,-0.02612730586031,0.0418989508437345,-0.0123250489571718
3.1,0.0209193885821102,-0.0108479561470146,0.040869311522756,-0.0170715881281532
3.105,0.0210425745872817,0.0136902822680955,0.041427031114995,-0.0237201691527257
3.11,0.0220523888613286,0.0363126975300725,0.0399177093271864,-0.0268864577595477
3.115,0.0235999977687801,0.0469728562887571,0.0334452580913597,-0.0227321310602557
3.12,0.0249356144756322,0.042079985694353,0.0222354382374499,-0.0115573429251607
3.125,0.0253073670367838,0.0261281200594441,0.0102747349858511,0.00192269951749677
3.13,0.0243917143030873,0.00871576917594068,0.00344852141525682,0.0107705445126918
3.135,0.0225164400540746,-0.00100039631389789,0.0063800739429832,0.00963041144432679
3.14,0.0205311615517984,0.000513715764786454,0.0195166061271248,-0.00233389929783186
3.145,0.0193933063397695,0.00937456293578367,0.0383531571666326,-0.020504560929289
3.15,0.0196601070379909,0.0170986129883562,0.0553161672083637,-0.0370960174503441
3.155,0.021161548024884,0.0160380260124567,0.0635591968952444,-0.0451546112453187
3.16,0.0230495144530294,0.00445491609817,0.060303465192182,-0.0417859361105064
3.165,0.0242192115607766,-0.0119025509334595,0.0482014858364387,-0.0298064318810859
3.17,0.0238861982515104,-0.0229200155395779,0.0337541462736093,-0.0159082642090723
3.175,0.0220290178709657,-0.0200076944745649,0.0236290595110982,-0.00694575280438539
3.18,0.0194469288275034,-0.00131486758278179,0.021247814242651,-0.00646688309236699
3.185,0.0173934417277201,0.0264177196621477,0.0254052680525025,-0.0129395196003529
3.19,0.016959300659104,0.0510405771519132,0.0313654579535404,-0.0210887994094453
3.195,0.0185225611158164,0.061339174425763,0.0341614731857564,-0.0251307946784339
3.2,0.0215429851467973,0.0529168109190907,0.0317856014967753,-0.0222425112912011
3.205,0.0248124547881243,0.030547638081905,0.0263350783095989,-0.0140352217214678
3.21,0.0270209552865565,0.00560722440602282,0.0226489663625462,-0.00557296975068605
3.215,0.0273384615026816,-0.0102827654694828,0.025327538543196,-0.00235066553953245
3.22,0.0257591602439954,-0.0113009669906114,0.0355614006751775,-0.00695776230794418
3.225,0.0230280652577153,-0.000212497509049521,0.0499926354945709,-0.0176482434975649
3.23,0.020242517116972,0.0137519292143668,0.0623302396964226,-0.0291238372437801
3.235,0.0183513185558351,0.0206859060723588,0.066523853158563,-0.0354201529332311
3.24,0.0178030619114307,0.0160185533330984,0.0599425741746083,-0.0332526455170217
3.245,0.0184695788401741,0.00304162078575205,0.0449216829508974,-0.0235962874382706
3.25,0.0198501932273482,-0.00910995832252552,0.0275357320058841,-0.0111434025268564
3.255,0.0213732800382833,-0.0111237139574194,0.0144712426420065,-0.00169917942774277
3.26,0.0226406740520684,0.000665924602911249,0.00974144015617049,0.000944699195593485
3.265,0.02349907774193,0.0217736535162118,0.0130556566868459,-0.00313267703217012
3.27,0.0239603645514061,0.0416918240244913,0.020394040759948,-0.0103612022483605
3.275,0.0240714775554111,0.0496875697037716,0.0268074782916145,-0.0160443408538501
3.28,0.0238236657438851,0.0408354600706587,0.0293761409220294,-0.0170776323128115
3.285,0.0231868257864327,0.0188567885730418,0.0289027598176765,-0.0137194535116169
3.29,0.0221983004367384,-0.00585674288024366,0.0289006424364098,-0.00934832935473799
3.295,0.021043806884674,-0.0217249811258153,0.0330933870700014,-0.00813044271119641
3.3,0.0200517266218164,-0.0220744430809675,0.0426024687575177,-0.0122853357861949
3.305,0.0195587798774013,-0.0083992988902511,0.0546204863083247,-0.0205863003040452
3.31,0.0197442894038902,0.0110083478027549,0.0635828180318645,-0.0287822450169089
3.315,0.0205180436985865,0.0259413520859056,0.0643379968701826,-0.0320480141854257
3.32,0.0215062930107939,0.0300662435140858,0.0552055062679445,-0.0278302090551765
3.325,0.0222054751391317,0.024036038231194,0.0392785360064862,-0.0176053721671611
3.33,0.0222170054705789,0.0145366577737976,0.0231645225661879,-0.00612026017975424
3.335,0.0214536753490452,0.00982272649874925,0.0135774458077936,0.00102788612276965
3.34,0.0202077363725532,0.0144945291526768,0.0138957014249163,0.000405131061783086
3.345,0.01905043035749,0.0264560244942669,0.0225772768408243,-0.00727360326896256
3.35,0.0185911856639177,0.0381414109303707,0.0343816354527086,-0.0178038366892514
3.355,0.0191955472896435,0.0409958676453964,0.0433621839861642,-0.0257870004383446
3.36,0.0208104767153388,0.0306686529100551,0.0461370152977344,-0.0277106661443005
3.365,0.022964997580332,0.0100186374103037,0.0433515347040349,-0.0238025977905622
3.37,0.0249461356646714,-0.0120352961937276,0.0387146120950393,-0.017426484417436
3.375,0.0260764760135316,-0.0251636756486624,0.0362119894530777,-0.0129399394805416
3.38,0.025971309571401,-0.0231736520827832,0.0375817181530721,-0.0128699514883367
3.385,0.0246551355903942,-0.00730799639247215,0.0412905195979994,-0.0164371138761535
3.39,0.0225377982922667,0.0144082914718465,0.0436248959302326,-0.0201371891795676
3.395,0.0202324828298051,0.0317478910248458,0.0414053205666579,-0.0201105081245898
3.4,0.0183484745766101,0.037670207709018,0.0341895196121093,-0.0147480930193975
3.405,0.0173312625386962,0.0316549067920708,0.0246712942538408,-0.00577188751659712
3.41,0.0173702378335489,0.0193777293089869,0.0173585358983525,0.00231090934081874
3.415,0.0183821862136628,0.00884546173348439,0.0161428411023893,0.00495838923715408
3.42,0.0200834405721631,0.00546575543679554,0.0219829375040666,0.000187883153201504
3.425,0.0220403846681816,0.00925971867804911,0.032441786231919,-0.0103622943046929
3.43,0.0237579031371229,0.0153535522527423,0.0431125025176157,-0.0220559482178349
3.435,0.0247875629885734,0.0176339015674215,0.0498200715610252,-0.0299599205844361
3.44,0.0248316551405491,0.0129751724268238,0.0506766232398067,-0.0313226388723573
3.445,0.0238605449718762,0.00328262440837797,0.0468167510442844,-0.0268725932098582
3.45,0.0221471382701405,-0.00562184873201556,0.0412601500848421,-0.0201058058498337
3.455,0.0201962127666341,-0.00755247623010913,0.0370779059514795,-0.0150259161924005
3.46,0.0186116507758521,2.02968739542646e-05,0.0356464032140175,-0.0139080879648637
3.465,0.0178824732254686,0.0144363810620269,0.0361417592269408,-0.0160406201394381
3.47,0.018195991280478,0.0293899861382697,0.0364353009740008,-0.0186732403921586
3.475,0.0193893044198832,0.0382822222787521,0.0347240614013377,-0.0188497742165244
3.48,0.0210284542156241,0.0378433409748849,0.0308469218911912,-0.0154972583713376
3.485,0.0225771261020256,0.0295226172182784,0.0266067099991734,-0.0103026702998522
3.49,0.0236079422883192,0.0181283061322578,0.0247535175697024,-0.00638964726336371
3.495,0.0239443243782109,0.00888293807549203,0.02721759917932,-0.00664136691440307
3.5,0.0236838293907277,0.00453657083537621,0.0337980270056645,-0.0116434606656335
3.505,0.0231053248633245,0.00441922067349695,0.0419746897757615,-0.0192375969357191
3.51,0.0225318027382833,0.00575753721632104,0.0481930513425431,-0.0257513445729439
3.515,0.0221726927384435,0.00587074329746962,0.0497025518883357,-0.0279028523357451
3.52,0.0220646405063154,0.00404688161108262,0.0459177370109533,-0.024849706371368
3.525,0.0220825434927098,0.00192078016385184,0.0386497491996819,-0.0184335834266045
3.53,0.022019959446709,0.00198368679272156,0.0309746905096083,-0.0121082205962319
3.535,0.0217236878618318,0.00571235247810138,0.0254649268182242,-0.00892693683064394
3.54,0.0211959927850883,0.012456930232316,0.0230034849264536,-0.00982811508403044
3.545,0.020606709001435,0.0195717297090986,0.0227712931845512,-0.0134477526312959
3.55,0.0202403134830089,0.0239541315304995,0.0232551860181953,-0.0170307262296816
3.555,0.020355804353086,0.0239091086567722,0.0236827934888773,-0.0184038263536057
3.56,0.0210028316428512,0.0199258388106935,0.0246517906976437,-0.0170999278633706
3.565,0.0219535801794654,0.0142541036541026,0.0276321128247193,-0.014544767195427
3.57,0.0227334893276577,0.00950375516826908,0.0335227940940177,-0.0130404847150458
3.575,0.0228074718075337,0.00702735498770873,0.0415645058564648,-0.0140572024539012
3.58,0.0218671375781796,0.00649084855157936,0.0491442533345891,-0.0175161828332434
3.585,0.0200480036698392,0.0065528011934913,0.05320811686772,-0.0217239687474673
3.59,0.0179686373351036,0.0060262227190192,0.0518952378885524,-0.0246252719374832
3.595,0.0165440794787412,0.00508567795719444,0.0458180654780781,-0.0251563224892325
3.6,0.0165893423291083,0.00522593175130398,0.0378734069113699,-0.0235701028180105
3.605,0.018433324026267,0.00817174341567111,0.0316128564596589,-0.0212271544556135
3.61,0.0216849883275273,0.0144469246833543,0.029071429441661,-0.0193873372925194
3.615,0.0253345835311739,0.022414073226305,0.0297540384237237,-0.0182594515018848
3.62,0.0281201099706067,0.0287582012254331,0.0310502446375091,-0.0170116945334374
3.625,0.0290553419984062,0.0302827607071725,0.0300729693079001,-0.0146791731953592
3.63,0.0278262601873679,0.025846707526603,0.0259137932852283,-0.0113115011452574
3.635,0.024903684095293,0.0171756351267814,0.0204637203507818,-0.00835833793625263
3.64,0.0213208977859665,0.00822287492438943,0.0174962795087672,-0.0082571150251327
3.645,0.0182453132454573,0.00278793955610605,0.0203189246516688,-0.0126659941795341
3.65,0.0165264718906121,0.00238729343247508,0.029550821990334,-0.020928578318277
3.655,0.0164270675168761,0.00519338129711679,0.0421975512449154,-0.0299464630166098
3.66,0.0176538249838329,0.00730928792064805,0.0529411075751058,-0.0352293173717805
3.665,0.0195961374163065,0.00548001134560586,0.0566958674725316,-0.0334640941129385
3.67,0.0216084567588773,-0.000298240024105898,0.0515207971285353,-0.0245781327795665
3.675,0.0232359775342621,-0.00634267339767261,0.0395944737922683,-0.0121894912459317
3.68,0.0242755075577486,-0.00710078371131997,0.0261590461051986,-0.00208715320075997
3.685,0.0247049253688598,0.00114411446418687,0.0169317598083659,0.000953105891544398
3.69,0.0245793839227936,0.0172193031363513,0.0151152647722772,-0.00424624727305304
3.695,0.0239715123594101,0.0348624903832766,0.0199440168600113,-0.0144233257656827
3.7,0.0229884194675811,0.0455598631079583,0.0276369792075184,-0.0236169131816976
3.705,0.0218102986738748,0.0432557510721395,0.0337426489759477,-0.0264839010284661
3.71,0.0206990423253092,0.0282256523680175,0.035752238441356,-0.0215423260811092
3.715,0.0199340589133297,0.0074241487629054,0.0345776694326497,-0.0121680466438441
3.72,0.0197073399626664,-0.00915729333269469,0.0336080622459697,-0.00460914661877436
3.725,0.0200366741215562,-0.0137337308749447,0.0362525770695159,-0.00444917355815491
3.73,0.0207333397104859,-0.00533486945205224,0.0434260280507447,-0.0131624461834853
3.735,0.021500345332667,0.00969671761336276,0.0524058558286466,-0.0267608531471259
3.74,0.022063745968393,0.0216341607702189,0.0581072844213676,-0.0380872911267312
3.745,0.022258938757103,0.0233512254553127,0.0560772596152174,-0.0406155110641096
3.75,0.0220824101528232,0.0146273620116,0.0454625958820939,-0.0322992750956514
3.755,0.0216475836230792,0.00252523749194526,0.0299011334964597,-0.0169496538035471
3.76,0.0211088519062163,-0.00314959187881072,0.0159435450183055,-0.00213071497488443
3.765,0.0206149712498309,0.00378008376086239,0.00960558337703099,0.00492025695138591
3.77,0.0203011931965902,0.0214618281445035,0.0129982123178453,0.00147694605328204
3.775,0.0203136759443031,0.0403236430101066,0.0231205955836573,-0.00945259278147077
3.78,0.0207996380145278,0.0483864593220726,0.0337429806558023,-0.0210461608557707
3.785,0.0218252381688157,0.0386457543478284,0.0392759420161741,-0.0267649477907906
3.79,0.02328460063203,0.0137651879127305,0.0380088895703894,-0.0242698629645956
3.795,0.024829557837369,-0.0146330138611944,0.0330950650865742,-0.0164751377998861
3.8,0.0259128305965881,-0.0319016457753476,0.0303686670071253,-0.0094484636848885
3.805,0.025976827812416,-0.028846920566684,0.0341604186015902,-0.00823273900750151
3.81,0.0247169469373777,-0.00705684925575831,0.0441470434415695,-0.0135152493998645
3.815,0.022278198315439,0.0216850828281249,0.0550790842585087,-0.0211796387332008
3.82,0.0192945591234543,0.0419229919905936,0.0598420128907142,-0.0248568563285609
3.825,0.0166849483071379,0.0434540593954607,0.0539316471589614,-0.020557663434043
3.83,0.0153162331907105,0.0271098709416451,0.0387909906421572,-0.00944071010277414
3.835,0.0156571071199556,0.00426521661934906,0.0214001667411718,0.00237799169999662
3.84,0.0175949060896361,-0.00990640962626846,0.0106743090745007,0.00732887621833025
3.845,0.0205024453323635,-0.00581718674880678,0.0122725801337425,0.00135398898170262
3.85,0.0234975122855505,0.0145044393404974,0.0251512733909427,-0.0133657555080709
3.855,0.025774092212312,0.0384774142207834,0.0420941310798148,-0.0291936843071973
3.86,0.026848874850968,0.0503410935151006,0.0538753656039521,-0.0374327963654719
3.865,0.026633824111235,0.0409453071534253,0.054474873481233,-0.0335451383859173
3.87,0.0253688882449626,0.0137986900322083,0.0445617848039206,-0.0200936755537311
3.875,0.0234552570874878,-0.0164665723574863,0.030948912864246,-0.00551793308100361
3.88,0.0213257550914607,-0.032405756869865,0.0222631453997389,0.00100126291780643
3.885,0.0193972280324171,-0.0241081255799312,0.0238154722453446,-0.00504218151101338
3.89,0.0180392973963294,0.00447340733766162,0.0342861612673682,-0.0203376541587366
3.895,0.0175464486711395,0.0375407385470553,0.0466123466664706,-0.0355330068248289
3.9,0.0180644808388437,0.0565621238912212,0.0522582931060776,-0.040748899051824
3.905,0.019480253716349,0.0510567643124315,0.0466161285053712,-0.0314038130947333
3.91,0.0213781873749114,0.0248838672456623,0.0318638194329743,-0.011454475869726
3.915,0.0231178412427938,-0.00601577957094781,0.0161172232176615,0.0087121416899344
3.92,0.024054786515921,-0.0232867077717727,0.00870540884946685,0.0180774721901496
3.925,0.023810428952362,-0.0170821110518794,0.0146934958935111,0.0113023035497855
3.93,0.0224717287404437,0.00800540051759525,0.0317437160119311,-0.00797223728815942
3.935,0.0206036373551997,0.0357408936046287,0.0512521054994564,-0.0291306856611042
3.94,0.0190230367580878,0.0482217357950425,0.063144245823452,-0.0405744202688922
3.945,0.0184547776307382,0.0367534508097095,0.0614192032512801,-0.0363985798431654
3.95,0.0192031482119014,0.00730238763331672,0.0476665178756091,-0.0196141948701668
3.955,0.021009481447677,-0.0228435312101864,0.030021400265376,-0.000205652227536943
3.96,0.0231596056445618,-0.0353435438459207,0.0183733316984649,0.0105698631372774
3.965,0.0248096443833836,-0.0218775021634119,0.0185107953866159,0.00696638779004021
3.97,0.025343128785952,0.0109865240212603,0.029065709871586,-0.00826442238330494
3.975,0.0246179475060366,0.04542352506004,0.0423834877547814,-0.0256329067563888
3.98,0.0230083545035487,0.0627194040179252,0.0493136117676546,-0.0348371947613625
3.985,0.0211824858107137,0.0539947530682689,0.0449472326668513,-0.0309576865821414
3.99,0.0197946587370813,0.0251436101303226,0.0316935883893017,-0.0171742528193836
3.995,0.0192211139489007,-0.00696166281879297,0.017708933919863,-0.00290124014121836
4,0.0194337244372383,-0.0243870548147848,0.0121085777834542,0.00227443207177045
4.005,0.0200841354571837,-0.0186653335207953,0.0194243348875004,-0.00556270522471431
4.01,0.020725918898479,0.00482906935465314,0.0365490756508969,-0.0223771471221089
4.015,0.021055704551337,0.0305796539690306,0.0546111344666641,-0.0385375595248283
4.02,0.0210411104746827,0.0423901025049828,0.0640655265871526,-0.0446164123321168
4.025,0.0209023048518514,0.0331770075475214,0.0600605732192526,-0.0370673538175244
4.03,0.020957813236802,0.00907627082106379,0.0450390095258623,-0.0202995648103172
4.035,0.0214255998405143,-0.0146112778897951,0.027174185171236,-0.00379685928474235
4.04,0.0222744487489522,-0.0226466797127763,0.0153658759849093,0.00355404691798537
4.045,0.0232293879630261,-0.00900012277183465,0.0142274985987179,-0.00142548990879164
4.05,0.0238922682466247,0.0192959595233984,0.0219940472006854,-0.0143638374054587
4.055,0.0239414297402993,0.046483142244802,0.0322208931837279,-0.0263698864459605
4.06,0.0232741892690838,0.0571130481463652,0.0380812607653192,-0.029621654786496
4.065,0.0220746518872139,0.0450210239046422,0.0365877198520538,-0.0220409914672263
4.07,0.0207251688568077,0.0167213874441408,0.0302527564538954,-0.00849629267458663
4.075,0.0196438946225023,-0.0124889421892566,0.0249486764344833,0.00234926321778775
4.08,0.0191096389860787,-0.0275996652904002,0.0258762810558925,0.00328696482889131
4.085,0.0191925003291173,-0.0222256050158921,0.0341834433774345,-0.00699251485523121
4.09,0.019750864923242,-0.00176461337180159,0.0459863504521085,-0.0231004625034312
4.095,0.0205289739928225,0.0204684899872219,0.0546198530051908,-0.0363178564424246
4.1,0.0212826134990153,0.0314720372484904,0.0547506806399879,-0.039586463476156
4.105,0.0218572040258549,0.0261580233232953,0.0454458846443457,-0.0315429257417276
4.11,0.0222125602613592,0.00998487436992672,0.0307004195569551,-0.0172203358868365
4.115,0.0223863032850443,-0.00503372218206617,0.0173008469758488,-0.00487414742019936
4.12,0.0224423341128811,-0.008058527572414,0.0109671742461987,-0.00107345762098544
4.125,0.0224354729279335,0.00389442192165498,0.0133196501137048,-0.00721921161691474
4.13,0.0223858020144072,0.0243373626015249,0.0215354836230346,-0.0191113654105746
4.135,0.0222683456925852,0.0411946145950173,0.0303032245403318,-0.0296660954563842
4.14,0.0220430762290399,0.044343760010597,0.0352112007650307,-0.0333310185071928
4.145,0.0216640348883638,0.0315219394521844,0.0352160059959311,-0.0291937570480492
4.15,0.0211094494848863,0.00939947139016242,0.0329309059288343,-0.0209339833959672
4.155,0.0204355471976945,-0.0104165029770865,0.0325419158605537,-0.0142956703833194
4.16,0.0197988361357187,-0.0182257691753853,0.0368623680327636,-0.013344012469813
4.165,0.0194411662473904,-0.0115189180678573,0.0451823471188521,-0.0179458374871089
4.17,0.0195959122188078,0.00435181852901481,0.0535695056122785,-0.0241515756851303
4.175,0.0203793844151311,0.0198472683171901,0.0570445731027631,-0.0269045046040845
4.18,0.0216771528024317,0.0271209958130647,0.0525393078273817,-0.0233787675142953
4.185,0.0231216638282849,0.0244122142424869,0.0409214868951588,-0.0146972444061906
4.19,0.0242078653963451,0.0161707918267044,0.0267210427938839,-0.00531152663360621
4.195,0.0244982171878382,0.00958417620074341,0.0156646155500962,-0.000164070279698275
4.2,0.0238392793964102,0.00967703027238879,0.0118130787809049,-0.00167549480141413
4.205,0.0224569710517911,0.0161790524832325,0.0157195235359404,-0.00847373577434396
4.21,0.0208841725787058,0.0240001580408655,0.0244089587282315,-0.0164053904898696
4.215,0.0197390484004072,0.0267556391793894,0.0334403816070462,-0.0212910966003063
4.22,0.0194483992534014,0.0209278212203669,0.0393391169757996,-0.0213879125920116
4.225,0.020045992423615,0.00822048533268046,0.0412118761186061,-0.0183182065928311
4.23,0.021177909168196,-0.00547287396672719,0.0404845694496268,-0.0157145770375211
4.235,0.0222802284288382,-0.0135763096613133,0.0394538617785195,-0.0164658006143192
4.24,0.022840167746961,-0.0125405938147493,0.0395015001930714,-0.0208308015467501
4.245,0.0226198247738992,-0.00353526012535827,0.0402632085087678,-0.0261535631006866
4.25,0.0217434562393713,0.00866219658851478,0.0401215597465121,-0.0285630893833295
4.255,0.0206075794501536,0.0187100185085819,0.0376880302647256,-0.0255992019483506
4.26,0.0196792839524164,0.0237346801131556,0.0330315900041535,-0.0178628053689861
4.265,0.0193059506333948,0.0242900469107843,0.0277866321778097,-0.00881858848253051
4.27,0.0196017337850956,0.0231221566440665,0.0244037169224053,-0.00268999491505803
4.275,0.0204568560519272,0.0227378395631787,0.0245327694320936,-0.00214368937468165
4.28,0.0216240570489308,0.0235201701098959,0.0281362248453086,-0.0067906164642576
4.285,0.0228249827420527,0.0236920543846253,0.0336660135287146,-0.0135468221494196
4.29,0.0238294138789536,0.0210069415579382,0.0390682025773242,-0.018806035312386
4.295,0.0244758384741338,0.0147445114089212,0.0429209760319988,-0.0204524713964405
4.3,0.0246512236611249,0.006790717241529,0.0451589675616567,-0.0189346120919998
4.305,0.0242848114875786,0.00069470699898717,0.0466167405668636,-0.0164739620971759
4.31,0.023370684468954,-0.000567994203532139,0.0479237002515231,-0.0153298166883568
4.315,0.0220103275501383,0.00343685354229295,0.0487420495824745,-0.0161902431636169
4.32,0.0204501634306538,0.0102770109204815,0.0478199203009364,-0.0176623729472193
4.325,0.0190627594739626,0.0161443398700965,0.0439778356477049,-0.0175700813305126
4.33,0.0182527755865658,0.0183005410552727,0.0372100965206512,-0.014603139914727
4.335,0.0183195925529866,0.0167100268004803,0.0292701074560433,-0.00954442621327635
4.34,0.0193073323029761,0.013904416816557,0.0230634548581314,-0.00499028952396908
4.345,0.0209560397479158,0.0130554919499771,0.0211085591402531,-0.00374039492690371
4.35,0.0227712210418429,0.0154728348085531,0.0239011975913469,-0.00700931578553691
4.355,0.0241925046122301,0.0194868822770292,0.0296900141598016,-0.0133470430531526
4.36,0.0248129251630116,0.0214514622578518,0.0352942674217849,-0.0195251965559382
4.365,0.0245374433960289,0.0181412203495436,0.0378471196016727,-0.0224548812998311
4.37,0.0235853206694473,0.00931940780393734,0.0366210410251526,-0.0210816107176577
4.375,0.0223680139035625,-0.00144247724653317,0.033390516641891,-0.017073948727666
4.38,0.0213045249389089,-0.00864392641361167,0.0311068802507972,-0.0137987300238921
4.385,0.0206471496137737,-0.00794355809821636,0.0320052729367341,-0.0141144244340876
4.39,0.0204383764844715,0.00100124180702247,0.036096566445429,-0.0183428594183704
4.395,0.0205796911939469,0.0139854784317701,0.0408531984632603,-0.0240186386008587
4.4,0.0209572466317797,0.0245462863576378,0.0428571502889362,-0.0273115491821753
4.405,0.0215256238150585,0.0275969244788711,0.0400944026828637,-0.0252607186704154
4.41,0.0222784256395228,0.0224230673038572,0.0333704943781582,-0.0179403919696256
4.415,0.0231759006234086,0.0132593412204957,0.0261978553864773,-0.00860955837453287
4.42,0.0240495842357766,0.00664924273577225,0.0229414346312248,-0.0018999396655231
4.425,0.0246042284237086,0.00744348301937431,0.0262716868097389,-0.00112513493540998
4.43,0.0245489079753007,0.0156907568658864,0.0354003378074188,-0.00640203776667602
4.435,0.0237706857162738,0.0263287953027374,0.046312032603661,-0.0144226062666264
4.44,0.0224575959111495,0.0322292258135346,0.0540034299096207,-0.0203578581626394
4.445,0.021047407116852,0.0285389311677131,0.0551402604681048,-0.0208720867786729
4.45,0.020052270737763,0.0158458690501485,0.0498504378063744,-0.0159661946190559
4.455,0.0198029342955738,0.000321778911138029,0.0416533984653637,-0.00901050444770431
4.46,0.0202888427526617,-0.00962078296367546,0.0352560062297618,-0.00477370982991416
4.465,0.0211658722117571,-0.00830491642973134,0.0335429057438445,-0.00644577071601765
4.47,0.0219679354608629,0.00376510063955264,0.036042228775123,-0.0136210881275076
4.475,0.02236153447474,0.0199264983299529,0.039251459619608,-0.0225044896630624
4.48,0.0223007099837934,0.0310188314436541,0.0387349584445697,-0.0281667428777812
4.485,0.0220289587657448,0.0306236106069711,0.032233893833209,-0.0275394530168524
4.49,0.0218823799502894,0.0188987351223107,0.0214134807329155,-0.0212958176627031
4.495,0.022063227052427,0.0025957377732191,0.0111647001488792,-0.0135551950770995
4.5,0.0224925762375084,-0.00883860889221021,0.00693301078062481,-0.00940317282045902
4.505,0.0228710095847413,-0.00884142067801101,0.0117254862454716,-0.0116774523061957
4.51,0.0228705016510112,0.00232016464809697,0.0240338169857666,-0.0192514275875056
4.515,0.0223666157368787,0.0177055070189604,0.0384858861471274,-0.0274747287763089
4.52,0.0215444769864681,0.0276737679780776,0.0487890711841579,-0.030944586029638
4.525,0.0208348957273572,0.0258306945655796,0.0511283246799988,-0.0267306895540353
4.53,0.0206767037616428,0.0130528503624771,0.0460523412885523,-0.0163146546525995
4.535,0.0212608403490916,-0.00277092868685051,0.0380579079383985,-0.00490290407600468
4.54,0.0223951308036528,-0.0112864198628947,0.0329079643529128,0.00163839422505663
4.545,0.0235879686726342,-0.00589580035424503,0.0339574433618655,-2.43016709094373e-05
4.55,0.0242709573064201,0.0120319618341757,0.0402451514115513,-0.00860597772422665
4.555,0.0240893689887433,0.0335558965517174,0.0473516425689545,-0.0189517608148321
4.56,0.023091099381094,0.0470333920255742,0.0500110905972439,-0.0251479367300692
4.565,0.0217232868783731,0.0448017356121747,0.0453734404859028,-0.0239358885834411
4.57,0.0206051329517097,0.0277428123702282,0.0351746860907578,-0.0166193114504684
4.575,0.0202519649594226,0.00480398319303812,0.0248355581349022,-0.00825236760506705
4.58,0.0208200045555236,-0.0118923937798057,0.0201242411662332,-0.00475942996848891
4.585,0.0220380341284369,-0.0141327709165673,0.0238847514798179,-0.00934592463940425
4.59,0.0233282744273352,-0.00208636711658098,0.034263108116257,-0.0203916894513086
4.595,0.0240626520782823,0.0159135110697421,0.0452650937782846,-0.0325627444922738
4.6,0.0238416778313489,0.028351508019471,0.0501779390061846,-0.0395111266833818
4.605,0.0226730464685691,0.0274426325564351,0.0455058463631533,-0.0375798365009003
4.61,0.0209571232373811,0.0137343881608378,0.032965536193725,-0.0278113868392481
4.615,0.0193199276209839,-0.00434304044637172,0.0186391043368789,-0.0153227610232978
4.62,0.0183722744774635,-0.015489856732774,0.00989003276719103,-0.00636357484381703
4.625,0.0184715496274994,-0.0123176437595458,0.0112088742115414,-0.00485920890834761
4.63,0.0195808892993638,0.00423562177954212,0.0216707957034742,-0.0104649192772344
4.635,0.0213103753651099,0.0253328464755966,0.0355834790434939,-0.0188168377341405
4.64,0.0230693768038445,0.0391833736278992,0.0457646380259675,-0.0243251715261832
4.645,0.0242954518432151,0.0380185884805818,0.0474257457480489,-0.0234752688899808
4.65,0.0246555845672859,0.0224339489633191,0.0408587824136874,-0.0167606843583785
4.655,0.0241556340734232,0.00109756601880582,0.0312410393245988,-0.00829484663446662
4.66,0.0231003465722185,-0.0141343133396687,0.0253516402522815,-0.00324044646408685
4.665,0.0219411683434107,-0.0148815091174878,0.0274913571375783,-0.00478405237580176
4.67,0.0210733100281514,-0.000915264757525041,0.0371367280986523,-0.0121853399538893
4.675,0.0206637454376999,0.0198691291304338,0.0490610869319026,-0.0212400800801468
4.68,0.0206162237643692,0.0359275865778763,0.056268273960843,-0.0268881763849403
4.685,0.020659704930813,0.0386264840142475,0.054230421133412,-0.026028085792645
4.69,0.0205314024570953,0.0269963362616652,0.0435104810879092,-0.0194729575872057
4.695,0.0201649996103404,0.00803002486495013,0.0292532287784823,-0.0113536693096481
4.7,0.0197578945183576,-0.00732999576873689,0.0184492871983647,-0.00678644471751772
4.705,0.0196862764074624,-0.0103849521838048,0.0161426444779103,-0.00885524348030192
4.71,0.0203051870363265,0.000346947943277881,0.0226071921927668,-0.0167474965357283
4.715,0.0217046163795903,0.018450459904479,0.0334162749797345,-0.0263744525861154
4.72,0.0235869594868299,0.0333869540502319,0.0422031942332453,-0.0324935454096017
4.725,0.025316221012187,0.0363968378162093,0.0441262982169279,-0.0317389522818982
4.73,0.0261687914888183,0.0255345839158458,0.0384030193823208,-0.0245242160412466
4.735,0.0256535096859069,0.0067096710148966,0.0285488656335869,-0.014687974936048
4.74,0.0237603681849695,-0.0097701787997801,0.0203441340502656,-0.00743102205399428
4.745,0.0210371686133068,-0.0148904581414938,0.0185163769994036,-0.00644189139093807
4.75,0.0184045921141178,-0.00609053003054224,0.0242689972089793,-0.0119717216276708
4.755,0.0168113795269705,0.0113599445618547,0.034885275676639,-0.0206027365035487
4.76,0.0168557696390392,0.0275315650358999,0.0453448572664948,-0.027136848033948
4.765,0.0185476708056174,0.0334311205670682,0.0508342505621679,-0.0274631823330667
4.77,0.0213106201920387,0.0260739896902935,0.0493135470512318,-0.0205660636139454
4.775,0.0241970049534334,0.0101526250076557,0.0423775969033635,-0.00924980779003057
4.78,0.0262534443105727,-0.00478159237526072,0.0340872808298077,0.00135055518566729
4.785,0.0268595836322139,-0.00966117257774054,0.0287408901051174,0.00630309647151501
4.79,0.0259300379384243,-0.00111767998685097,0.0286821634717402,0.00333289339741385
4.795,0.0238703952177479,0.0166032777422416,0.0330928504377159,-0.00610576384611509
4.8,0.0213875326450519,0.0340363929266637,0.0386099049829766,-0.0176417039964997
4.805,0.0192099814558541,0.0416400263158801,0.0415545014346668,-0.0261808493562174
4.81,0.0178412120629113,0.0350186636651127,0.0399302728577202,-0.0284341429242537
4.815,0.0174568909732767,0.017256402600345,0.0346448618637803,-0.0245764136020305
4.82,0.0179226677331228,-0.00280465409973746,0.0290345784048997,-0.0177966097810393
4.825,0.0189270225294491,-0.0153241040595133,0.0269441045995931,-0.0125648635015677
4.83,0.0201228595329096,-0.0146654326376827,0.0301232349015007,-0.0122253216631163
4.835,0.0212469087047046,-0.00218323680434351,0.0372225459421046,-0.0171337513593372
4.84,0.0221477861772842,0.0147839280755066,0.0443306754134699,-0.0245590749818246
4.845,0.0227744467529174,0.0270930536588859,0.0470759097391271,-0.0301609926174213
4.85,0.0231284562903802,0.028802317098676,0.0432089336547905,-0.0304179316640897
4.855,0.0232316403209965,0.0203343185919193,0.0342036251328166,-0.0243781882032659
4.86,0.0231008423041906,0.00798696982652483,0.0245649532041658,-0.0142092275147364
4.865,0.0227696469643584,0.000165409281654778,0.019376277366081,-0.00412164871351338
4.87,0.0222893550328725,0.00251162569193586,0.0217175861424541,0.00198076713135121
4.875,0.0217502800246493,0.0144834277554874,0.0308106554689276,0.00230628957491283
4.88,0.0212638748263314,0.0294866512610095,0.0423779537854769,-0.00211826222573139
4.885,0.0209521126249716,0.038524986659332,0.0509980469532063,-0.00829551646126466
4.89,0.0208964154114474,0.0353691773666955,0.0530648218485625,-0.0130424311534373
4.895,0.0211207704978027,0.0201821377101322,0.0485072064141205,-0.0147454174664453
4.9,0.0215474210803117,-2.36353264255648e-05,0.0406729578742958,-0.014112122303468
4.905,0.0220170787309407,-0.0152084531396051,0.034385103105191,-0.0131798311299631
4.91,0.0223211939230187,-0.0176470586631494,0.0330324888300606,-0.0139992025007081
4.915,0.022277620875871,-0.00630072145165617,0.0365451214861394,-0.0171056343495607
4.92,0.0218124544484073,0.0126213436809944,0.0416819097485301,-0.020992619797193
4.925,0.0210138146184626,0.029008691660108,0.0439128359796647,-0.0232053308109286
4.93,0.0201204202531694,0.0345105598028231,0.0400527386549223,-0.0219142512209466
4.935,0.0194556642595624,0.027119701548768,0.0304042837677447,-0.0174502910689484
4.94,0.0193096525001565,0.0121488858783804,0.0189424307648349,-0.0122153798513703
4.945,0.0198142588255713,-0.00102670200265822,0.0112140871210251,-0.00953864105736919
4.95,0.0208760157412806,-0.00447689922172441,0.0114447733150311,-0.0116426200906299
4.955,0.0221893307227111,0.00362869488255172,0.0202613491812651,-0.0179353877485756
4.96,0.0233164816249594,0.0180486395664824,0.0341949629213039,-0.0252049495358895
4.965,0.0238305049430983,0.0297188956736747,0.0473365001269096,-0.0290435389762457
4.97,0.0234643286130812,0.0310354865280257,0.0545630319410053,-0.0265396209331602
4.975,0.0222205606617286,0.02059170928939,0.0540350262579572,-0.0181339922876679
4.98,0.0204011882230049,0.00404028355666594,0.0478706218827488,-0.00768575405860794
4.985,0.0185638307446512,-0.00919983607462082,0.0407835270965893,-0.000643430475487269
4.99,0.0173727294709996,-0.0113638638122946,0.0372059941926366,-0.000879012749396782
4.995,0.0173917196969978,-0.000813418435854845,0.0385277854139181,-0.00848312950995255
5,0.0188675262303318,0.0169081225005819,0.042571316057965,-0.0194207260192991
5.005,0.0215773413866478,0.0323533945345552,0.0450303180761572,-0.0276524700550818
5.01,0.024819171190452,0.0374253747321086,0.0422189261796724,-0.0284959092997515
5.015,0.0275976831018363,0.0299651850858153,0.0335530249269147,-0.0212358770656501
5.02,0.0289453706564466,0.0148000018841764,0.0222398834264604,-0.00994224480910804
5.025,0.0282987486404532,0.000699876860732336,0.0134125801006361,-0.0010665363907398
5.03,0.0257569882932346,-0.00476301723978321,0.0112970380958653,-4.48979180319145e-05
5.035,0.0220866756964972,0.000504101798347885,0.0168655239862166,-0.00832788756912673
5.04,0.0184635570295687,0.0120139115461682,0.0273130620573609,-0.0223227809366983
5.045,0.0160201908618153,0.0216388940979275,0.0376301441057341,-0.0355005456989301
5.05,0.0153981119624499,0.0225136004804813,0.0434946147333208,-0.0417401367901123
5.055,0.0165297708139193,0.0131806082638164,0.0434074533181181,-0.0386310539789773
5.06,0.0187222550382427,-0.0014451593095458,0.0391641338199682,-0.0284345551568367
5.065,0.0210052387977253,-0.0129639372971822,0.0343569327635712,-0.0166198456671641
5.07,0.0225895983905528,-0.0143336423837602,0.0320426675081859,-0.00879696636403109
5.075,0.0231773340610518,-0.0038384805607975,0.0330178530650146,-0.00762272288728372
5.08,0.0229833280541394,0.0139085880698683,0.0356721322954462,-0.0118345389511754
5.085,0.0225166160698878,0.0305942735568653,0.0373203275574753,-0.0173620035849782
5.09,0.0222330644649761,0.0389236144638068,0.0362610913096278,-0.0199954569965046
5.095,0.0222833796252454,0.0363193207257003,0.0329387843235773,-0.0178827937816668
5.1,0.0224852117395571,0.0258577073987074,0.0295422822589244,-0.0124045844974496
5.105,0.0225173431040375,0.0140358326438909,0.0286361517373359,-0.00714465708450128
5.11,0.0221757008395828,0.00665805672649377,0.031520867901651,-0.00550341313061625
5.115,0.0215396913443496,0.00576758613598201,0.0372428367606708,-0.00878812424513243
5.12,0.0209353025451796,0.00905024912471305,0.0431710527012673,-0.0156315891797936
5.125,0.0207050828305523,0.0118863656466147,0.0465827353988172,-0.022884085000863
5.13,0.0209795097217131,0.0107603093848329,0.0460299943250828,-0.027640745719739
5.135,0.0215721713655121,0.00561585184681915,0.0420467994672434,-0.0286966416384178
5.14,0.0220709127226834,-0.000365468895215259,0.0365678876487442,-0.0268594589484902
5.145,0.0220851262393651,-0.00297483547445671,0.0316419803205927,-0.0240727261280296
5.15,0.0214825459861805,0.000223799892523627,0.0281915780487296,-0.0219031475709175
5.155,0.0204711040461102,0.0082472391846908,0.0259042165781367,-0.0206489438395218
5.16,0.0194938939075306,0.0173300944575002,0.0238209670787798,-0.0193937773748507
5.165,0.0189935037019143,0.0232771408981356,0.0214752729196995,-0.0171062460319656
5.17,0.0192002318422529,0.023973873614571,0.0195919888020106,-0.0136874530818673
5.175,0.0200455633972469,0.020182568694975,0.0199410930186823,-0.0102369076949258
5.18,0.0212380908013215,0.014720409871497,0.0240551304135141,-0.00848749108463669
5.185,0.0224333911425982,0.0103674371231853,0.0320026769566481,-0.00959825896968436
5.19,0.0233651774612066,0.00824277650011432,0.0419028696695224,-0.0131929716189524
5.195,0.0238938119487746,0.00752355767597682,0.0504945578509765,-0.0173996206438743
5.2,0.0239839454982032,0.0067801770446414,0.0546328919435267,-0.0199867692528646
5.205,0.0236414184819047,0.0055423930849928,0.0530278741243375,-0.0196538711495548
5.21,0.0229076402436987,0.0049043519547934,0.0469865406725409,-0.0167350080122075
5.215,0.0219139879012053,0.00676917635926148,0.0395939361761818,-0.0131030693700552
5.22,0.0209049897969457,0.012151172758694,0.0340881005625657,-0.0108909182298416
5.225,0.0202099805170148,0.0198025391800281,0.0322281790463228,-0.0109892566235597
5.23,0.0201180622432977,0.0265286123359961,0.033349538424385,-0.012772432898571
5.235,0.0207064219602076,0.0290212348966104,0.0350416742189406,-0.0145458686231753
5.24,0.0217415355006731,0.0258561989782775,0.0350439616759923,-0.0148336747511613
5.245,0.0227392037518547,0.018683321172155,0.0326577621908252,-0.0135214914357309
5.25,0.0231730121121841,0.0113719689260997,0.0292653188257116,-0.0121237629294098
5.255,0.0227376114371986,0.00754552546974016,0.0275274699703294,-0.0126518215231242
5.26,0.0215128826053759,0.0083051747851961,0.0294768667684726,-0.0160969743166458
5.265,0.0199494774727257,0.0115085614060604,0.0349131920974604,-0.0216951273782659
5.27,0.0186562559436394,0.0131800467317286,0.0412904460077212,-0.0268832389043821
5.275,0.0181196144217392,0.0103454918788205,0.0451584559861945,-0.0287899002884292
5.28,0.0184891010115666,0.00335885278271645,0.0440629056637539,-0.0261465750801889
5.285,0.0195524351362793,-0.00397575433436124,0.0381718605370248,-0.0199727506501036
5.29,0.0208803591898119,-0.00646320684969045,0.0303450988810642,-0.0132643246534657
5.295,0.0220482017349313,-0.00088325528162922,0.0243986478847601,-0.00911056907105161
5.3,0.0228092506263267,0.011638540645041,0.0229285997713705,-0.00891984474439827
5.305,0.0231418518906188,0.0257951536924371,0.025953885240989,-0.011574979677918
5.31,0.0231664367242146,0.0348110242887901,0.0311212341737262,-0.0140845474374611
5.315,0.0230223326037238,0.0342378453730049,0.0352769670193417,-0.0136654067547685
5.32,0.0227778368712562,0.024586594077884,0.0367811383880237,-0.00946851868320287
5.325,0.0224373582063158,0.0111437251537688,0.036322797491819,-0.00340845657480375
5.33,0.0219901073783869,0.00100273933028678,0.0363450199169768,0.000958374588304456
5.335,0.0214713304348392,-0.000836636416741497,0.0391865973372898,0.000524937192691117
5.34,0.020958014351874,0.00561407815849801,0.045198723472129,-0.00545808162157495
5.345,0.0205381023961494,0.0155363928796355,0.0520085787530052,-0.0146459365404274
5.35,0.0202423838338997,0.022268438741162,0.0559021560228029,-0.0230221977741257
5.355,0.0200401621712134,0.0212799006464307,0.0539362340735462,-0.026943859858167
5.36,0.019904825831489,0.013011735502473,0.0458278357342007,-0.0252213365909485
5.365,0.0198674419468446,0.00263929983903133,0.0343862013162106,-0.0197411523653473
5.37,0.0200558215688041,-0.00301747963059632,0.024132461726793,-0.0141683137660838
5.375,0.020648573619753,0.000512720955611104,0.018820610505609,-0.0119415174561182
5.38,0.0217334225411852,0.0123674450865899,0.0195498075736997,-0.0141895399325358
5.385,0.0231835820780105,0.0265681044640072,0.024328848165623,-0.0193444920666907
5.39,0.0246271839977654,0.0353603922329884,0.0294357412799599,-0.0241518441066275
5.395,0.0255266121145538,0.0334863311317311,0.0316752627014825,-0.0256611380649129
5.4,0.0254129387856314,0.0212466817224179,0.0302234258687717,-0.0230634726559515
5.405,0.0241073477334416,0.00467111640156001,0.0271198514610783,-0.0179326689724919
5.41,0.0218408180231806,-0.00785531845762172,0.0259357724716381,-0.0132986170185014
5.415,0.0192192902973273,-0.0101530113805474,0.0295845828331825,-0.0116694674362063
5.42,0.0170060451687134,-0.00162929623552082,0.0384498046737298,-0.0134616936558009
5.425,0.0158401024057867,0.0124382633658958,0.049846427945839,-0.0167083135304876
5.43,0.0160109135036822,0.0238575496056544,0.0590857375863038,-0.0182909365785107
5.435,0.0173782068932894,0.0262955303216182,0.061867993526516,-0.0158335337299653
5.44,0.0194724451274453,0.0187630366161692,0.056459793286484,-0.00933601150333832
5.445,0.0217065748060574,0.00629455243591696,0.0446651487039224,-0.00150362722645152
5.45,0.0235617874319471,-0.00292609569825329,0.0312428231853324,0.00358556852643164
5.455,0.0247369720160936,-0.00241544091405972,0.0215063718921486,0.0027591311234912
5.46,0.0251702166274574,0.00880576789502082,0.0187567780943371,-0.00451145154749403
5.465,0.024964133915614,0.0253535323971837,0.0228027788264987,-0.0154356004466668
5.47,0.0242976472396617,0.0382117533080699,0.030119261916815,-0.0252624444585919
5.475,0.0233633377159864,0.0396060165069057,0.0358188489711658,-0.0298266465199821
5.48,0.022335377472292,0.0275284817499739,0.0365410930474198,-0.0276964219055283
5.485,0.021364933621289,0.00704573946823636,0.0322625901377375,-0.0211414969692083
5.49,0.0205798114070391,-0.0120321181309433,0.0262730123971763,-0.0148987505339203
5.495,0.0200652219992703,-0.0203400664616031,0.0232959899904755,-0.0135319954516538
5.5,0.019857692922939,-0.0138532443229575,0.0265132686279162,-0.0187375793231098
5.505,0.0199356841970367,0.0037809882364689,0.0354946571039461,-0.0281826609096763
5.51,0.0202345950159577,0.0232442445737003,0.0461794392214181,-0.0364623782047251
5.515,0.0206818832749717,0.0344391009407487,0.0529225659403608,-0.0380884153631723
5.52,0.0212061856041172,0.0321657966262955,0.0517013135438002,-0.0306428103227519
5.525,0.0217074113151629,0.018943647177676,0.0425763429712322,-0.016341409039089
5.53,0.0220662675732023,0.00361061101777455,0.0298310506311273,-0.00117602944853307
5.535,0.0221370429053724,-0.0036711998585451,0.0198278458497894,0.00793948626077873
5.54,0.0217917991161674,0.00254172139187287,0.0176077413612151,0.00697209119677541
5.545,0.0210222828897679,0.019511183480532,0.0241978281793765,-0.00310734027862784
5.55,0.0200097678361814,0.0374008996420925,0.0360411067695146,-0.0169451672101012
5.555,0.0191138225425574,0.0446899092031398,0.0470143374033623,-0.0274676082320141
5.56,0.0187791033611471,0.0348475506361143,0.0517952439338308,-0.0298335582994678
5.565,0.019347869116527,0.0107222846176416,0.0487234390506774,-0.0239411104565081
5.57,0.0208672882852527,-0.0165423858732687,0.0404385436793612,-0.0143289958383347
5.575,0.0230170278665596,-0.0330479662954607,0.0321276616900915,-0.00739926800676367
5.58,0.0251678394404712,-0.029836727247916,0.028357749689876,-0.00771610186530377
5.585,0.0265960503466115,-0.00806879435849816,0.0302288527603499,-0.0153268128984392
5.59,0.0267564667796502,0.0212331937817225,0.0347638836597593,-0.0256895014719238
5.595,0.0254912672723233,0.0431232771962255,0.0368970195192571,-0.0324430742190579
5.6,0.0231001829463601,0.0468319780741165,0.0327141684477333,-0.0311496689166854
5.605,0.020254232843943,0.0318106730366588,0.0223065852967288,-0.022100761720319
5.61,0.0177517508757797,0.00789952322663848,0.0103133817412209,-0.0103629248639283
5.615,0.0162558198961604,-0.0104771794184695,0.0036566814481701,-0.00280118673108734
5.62,0.0160958007052732,-0.0125488091975091,0.00761759628753842,-0.00427249543534057
5.625,0.0171699875048269,0.00233095834082889,0.0225670037562519,-0.0145217924849905
5.63,0.0190158382281817,0.0243187208674509,0.0431844994746209,-0.0281232362294785
5.635,0.0209991432309155,0.0390322634375037,0.060845703535981,-0.0375752375532567
5.64,0.0225353188431335,0.0361581747679126,0.068111770746977,-0.0374141485717278
5.645,0.023291621785584,0.0158586956451344,0.0625601400099729,-0.0275697748681392
5.65,0.0232820456135658,-0.0106355885339476,0.048136461361846,-0.0133459759382679
5.655,0.0228055452118817,-0.0274272043598246,0.032876176459965,-0.00248424531154445
5.66,0.0222643317351315,-0.0230797583600748,0.0244274657660949,-0.000604433398101319
5.665,0.0219755286893436,0.00240761354179473,0.0258237827579238,-0.00788595702318952
5.67,0.0220129499950244,0.0369156032255608,0.0340208456424553,-0.0189971844685675
5.675,0.0222198649184093,0.0626182577883411,0.0419861431072172,-0.0261870127108798
5.68,0.0223294871346494,0.0658038372394966,0.0432378986234519,-0.0241623608755276
5.685,0.022170833465255,0.0444265679467982,0.0358416649348321,-0.0133696448509794
5.69,0.0217905702876292,0.00945420174142083,0.0237870626984014,-0.000116938552263879
5.695,0.0214364987437321,-0.0212479049987678,0.0146462894406651,0.00694577911115304
5.7,0.0213940216640461,-0.0328942390713821,0.0148840123556503,0.00206946941134087
5.705,0.0217770679350816,-0.0216643618071374,0.0257207478714494,-0.0140347330803668
5.71,0.0224032330310659,0.00345985315400959,0.0421203732022034,-0.0340248988863815
5.715,0.0228373761536652,0.0263115190619661,0.0553166685580879,-0.0477439483631959
5.72,0.0226120945372689,0.0331912693830428,0.0578557381172718,-0.0478281520361202
5.725,0.0215093043876691,0.0208238217251298,0.0479234697800082,-0.0338439468936807
5.73,0.019736793714919,-0.00194621293259722,0.0303630496636813,-0.0128022107428228
5.735,0.0178980143885838,-0.0194898159869039,0.0141863586047694,0.00468591272290283
5.74,0.0167509713595334,-0.0190118749348011,0.00747156356139833,0.0101583675327496
5.745,0.0168713000535435,0.00165052002967049,0.0129906589857006,0.0018220942607746
5.75,0.0183702672025286,0.0324764962892958,0.0269680362586558,-0.0145940594653135
5.755,0.0208113097760551,0.0567521791077038,0.0416384949329454,-0.0291933177579479
5.76,0.0233814668355423,0.0607253554861203,0.049728602075449,-0.0336428897022078
5.765,0.0252042401009667,0.0416429246594219,0.0487051310517192,-0.0258208683882277
5.77,0.0256917165868302,0.00937927989189767,0.0418045597182513,-0.0107442552853184
5.775,0.0247773957423921,-0.0190200306949171,0.0355725802174642,0.00248603313860995
5.78,0.0228997674551486,-0.0288703787925301,0.0356590060738431,0.006002893451085
5.785,0.0208192641256495,-0.0161790988029575,0.043087796206799,-0.00217361542393339
5.79,0.0193002398183587,0.0106113140875587,0.0536217381947852,-0.0172006270404861
5.795,0.0188030315249248,0.0358085688370827,0.0603002856236134,-0.030336447603078
5.8,0.019326624345857,0.0455617961130184,0.057744615694153,-0.0339919191282862
5.805,0.0204590732937611,0.0357710999383815,0.045432195231172,-0.0260926430100304
5.81,0.0215842870785215,0.014023512189662,0.0283694193095853,-0.0111058247295702
5.815,0.0221940601673814,-0.00550012854077498,0.0142394812905235,0.002652160204772
5.82,0.0221132303404531,-0.0106711091215934,0.00931767326596874,0.00789637336963729
5.825,0.0215647328855574,0.00134159242308525,0.0151032479525914,0.00236503070200461
5.83,0.0210299489427176,0.0225052158032233,0.0276604414407055,-0.0102299618822997
5.835,0.0209624439437505,0.0390108532735868,0.0400605416982127,-0.0226889624139123
5.84,0.0215162067357609,0.0397849227629993,0.0463638097915971,-0.0286055890718085
5.845,0.0224491870364474,0.0230526993245748,0.0446561106527067,-0.0260018087514791
5.85,0.0232257319001786,-0.00243004860679998,0.0377023270784771,-0.018055464439811
5.855,0.0233041351444883,-0.0226453996486803,0.030957223317235,-0.010762305224843
5.86,0.0224492117604974,-0.0264809617469612,0.02900582752812,-0.00898126798524928
5.865,0.0208912746486526,-0.0120519057566894,0.0329745356600672,-0.0136276175112736
5.87,0.0192261325890421,0.0124575830388365,0.039986579598838,-0.0212058874915013
5.875,0.0181408485701783,0.0337908675949206,0.0451305425832086,-0.0262355431660799
5.88,0.018076671175217,0.0414221296606175,0.0445995132005561,-0.0248999061428335
5.885,0.0190238544002046,0.0332431545822556,0.0380372691243761,-0.0173140036855451
5.89,0.0205493826866097,0.016190687847615,0.0287843963357352,-0.00757995106953438
5.895,0.022043425661029,0.00164964700770097,0.022004754627394,-0.00117277735523311
5.9,0.0230013615469435,-0.00168985213301645,0.0216671742170866,-0.00161982911514009
5.905,0.0232355228250807,0.00741840781841292,0.028287454469916,-0.00842130181557784
5.91,0.0228644623506338,0.022453481447351,0.038847202667842,-0.0174480898224904
5.915,0.0221627909181,0.0335450100349044,0.0484170484901659,-0.0234853917138393
5.92,0.0213733797379368,0.033501331338948,0.052975624497285,-0.0233927742114304
5.925,0.0205978009138577,0.0220112084865425,0.0513882873146065,-0.0178859635723055
5.93,0.0198273726668796,0.00536400830331298,0.0456482549429819,-0.0108683873896479
5.935,0.0191056356150161,-0.00744682442928781,0.039256568271535,-0.00700757951436523
5.94,0.018608040936717,-0.0100318816522628,0.0350547312085079,-0.00889462260154512
5.945,0.0186176911814528,-0.0020115315022927,0.0335990837884334,-0.0155327415910331
5.95,0.0193936857002478,0.0114594867484278,0.033302133689929,-0.0231862905892958
5.955,0.0209563256904728,0.0229656182147826,0.0318713666357791,-0.0276771695997272
5.96,0.0229762125757427,0.0271122684370363,0.0280954692765938,-0.0268266212377531
5.965,0.0248487514940617,0.0231719335689902,0.0228676749139344,-0.0216426449497388
5.97,0.0259111573194798,0.0147133893921287,0.0186602724924459,-0.0152971972277195
5.975,0.025732847856639,0.00682970611678088,0.0179235283234342,-0.0112895811481178
5.98,0.0243155620494803,0.00328450002647813,0.0215785333354225,-0.0113095958815822
5.985,0.0220855008326314,0.00455069426740591,0.0284381282963126,-0.0144950191148449
5.99,0.0197337665460534,0.00833434046556298,0.0358958617724298,-0.0184150819446909
5.995,0.0179528492082013,0.011544920458265,0.041441244159827,-0.0207469874521005
6,0.0171813365834469,0.0121239280994407,0.0439218296012869,-0.020586648449368
6.005,0.017506848929521,0.0101057309562097,0.0437440064109196,-0.0187978180995553
6.01,0.0186822150883055,0.00711578336259983,0.042261489355443,-0.0171715731465161
6.015,0.0202702785626076,0.0050264277076249,0.0405333866740587,-0.0169320655299957
6.02,0.0218003043683671,0.00495320741874675,0.0387412234904814,-0.0180851102790029
6.025,0.022907300912546,0.00709825176010939,0.0363847156216209,-0.0195794249397938
6.03,0.0234081970102733,0.0108834313265,0.0330805209582495,-0.0201351772404565
6.035,0.0233284708513219,0.0156606164234739,0.0291489048470963,-0.0192541327191437
6.04,0.02287222956034,0.0206968993161462,0.0258323048636783,-0.0175707344180283
6.045,0.022346072544733,0.0249951008433683,0.0244778615848012,-0.016249336049311
6.05,0.0220425995872424,0.0271408073961595,0.025750572233024,-0.0161904224769959
6.055,0.0221390672396938,0.0257018239969177,0.0291230016970064,-0.0174310812192141
6.06,0.0226002278282986,0.0201402464544578,0.0331322989763883,-0.0192222488121816
6.065,0.0231728270832537,0.0117008878278888,0.03636800381064,-0.0206915094417309
6.07,0.0234926833096642,0.0033510386755507,0.038151838695991,-0.021452552037592
6.075,0.0232406402216015,-0.00140378069304403,0.0387554344443937,-0.0218104874202627
6.08,0.0223116215273044,-0.000367572771788421,0.0389446570842288,-0.0223143029759794
6.085,0.020886924484748,0.00568479075237184,0.0391356611402072,-0.0230675271055215
6.09,0.0193965817858499,0.013239022908351,0.0388646182464661,-0.0234194479249863
6.095,0.0183426876420385,0.017812552651768,0.0372725557148628,-0.0223583511425314
6.1,0.0180909590529065,0.0166175861928922,0.0337306766819733,-0.0193307679220508
6.105,0.0187237954002568,0.0104209683867334,0.0286377824527379,-0.0148780738433189
6.11,0.0200069791712686,0.00341179001505955,0.0237031269371074,-0.0107166009855053
6.115,0.0214932600340703,0.000644714568713932,0.0209464542553759,-0.00884568519820022
6.12,0.0227080098453933,0.00489019960311587,0.0216843928979302,-0.0102831630901098
6.125,0.0233222356341007,0.0145924176136453,0.0256627754230984,-0.0143249933721244
6.13,0.0232539819174923,0.0242250738544764,0.0310072456655263,-0.0187453924566703
6.135,0.0226705019364766,0.0275361657725971,0.0351938869047801,-0.0210372697886258
6.14,0.0218825371135206,0.0214205649217362,0.0366943937423736,-0.0199862635538752
6.145,0.0212269319808104,0.00810316136864806,0.0357023954573561,-0.0164436425742876
6.15,0.0209400636414194,-0.00565501676826003,0.0340300082295728,-0.0130300746637917
6.155,0.0210817719357308,-0.0120646366982033,0.0339779828605693,-0.0124209113170969
6.16,0.0215138625956716,-0.00699236877488832,0.0367387700451491,-0.0156853671629525
6.165,0.0219637411783759,0.00760509416283589,0.0413751490606313,-0.0213717553339555
6.17,0.022118262936204,0.024574493997167,0.0452458336471896,-0.0261218727600138
6.175,0.0217683734444753,0.035351779127147,0.045609065597491,-0.0266090807082181
6.18,0.0209209000200868,0.034886956587871,0.0412584822094729,-0.0215756099656007
6.185,0.0198495928564483,0.0243823046002103,0.0336213509470933,-0.0130018735336481
6.19,0.0190126314771231,0.0104728559789008,0.0262723518405498,-0.0051193288656206
6.195,0.0188798961053307,0.00138204400539772,0.0231098164165351,-0.00227770015503843
6.2,0.0196977040647206,0.00213074000905024,0.0259892911626008,-0.0064764429422801
6.205,0.0213308971177358,0.0115521260914902,0.0336664159610183,-0.0159874061881962
6.21,0.0232389300243645,0.0232421555430978,0.0422719557390665,-0.0261175265150508
6.215,0.0246807249507258,0.0293252197987835,0.047317357396027,-0.0315870495077625
6.22,0.0250138452736695,0.0251953482609649,0.0461736751727479,-0.029433628743071
6.225,0.0240141788734413,0.0123064554885797,0.0396395863581592,-0.0205862878639637
6.23,0.0220062254438228,-0.00259983208202522,0.0314162424331607,-0.00945415189235013
6.235,0.0197669595434082,-0.0112390937497615,0.0259896789057986,-0.0016339281853698
6.24,0.0181964384576991,-0.0085540175331729,0.0262862964314873,-0.000771233750216981
6.245,0.0179387817547483,0.00432988461984266,0.0317540655142705,-0.00674860873700607
6.25,0.019092726599476,0.0207500742274027,0.0388499652302758,-0.015779615531646
6.255,0.0211867488302925,0.0321438661876771,0.0431335707432427,-0.0225018626695289
6.26,0.0233788912235022,0.0326697231250421,0.0417807330477765,-0.0230230532821679
6.265,0.0248425724464571,0.0224590334786145,0.0351563996134795,-0.0170224538391483
6.27,0.0250779149342886,0.0073766422790647,0.0268008884788483,-0.00792370690160367
6.275,0.0240801165619884,-0.004347485887872,0.0213523862445364,-0.000900951393928876
6.28,0.0222854606342419,-0.00648467339617482,0.0220117296738264,-0.00014682105797576
6.285,0.0203535741630111,0.00173005134993353,0.0289003317167423,-0.00646987179058118
6.29,0.0188995111375056,0.0153996860078143,0.039028861947359,-0.016853366031268
6.295,0.0183130600775571,0.0268093434970414,0.0479111987130449,-0.0262312753977727
6.3,0.018686077935074,0.0296681725161248,0.0518779441340521,-0.0299562664890438
6.305,0.0198542066867768,0.0225238652123268,0.0498357807598077,-0.0263665246262819
6.31,0.0214805070637244,0.00967047490341649,0.0435993687358378,-0.0175819916461076
6.315,0.0231206154627134,-0.00142248581954388,0.036609690578796,-0.00812448937655277
6.32,0.0243218181877186,-0.00414565901027881,0.0321617579896195,-0.00258596608974236
6.325,0.0247083803341427,0.00378448715309837,0.0318276287095753,-0.00329469664822517
6.33,0.0240839830189432,0.0188986917944042,0.0348751864324668,-0.00915573396888206
6.335,0.0225570937013649,0.0337663445488688,0.0389803874103382,-0.0164689874739675
6.34,0.0205759815200869,0.0409057760079381,0.041682926861528,-0.0211282251256581
6.345,0.0188350681235539,0.0365981923778557,0.0415245571228076,-0.0207155224421208
6.35,0.0180404016522996,0.0227123144119516,0.038760784931126,-0.0157177646925156
6.355,0.0186022560383124,0.00590714451600443,0.0350642309597286,-0.00919783173338339
6.36,0.020402107680718,-0.00601270574446758,0.0325131970467658,-0.00494069566950297
6.365,0.0227765909430996,-0.00797261478289198,0.0324689417621481,-0.00538820439575844
6.37,0.0247422849837717,-0.0001059572085536,0.0350080926675017,-0.0104653226143573
6.375,0.0254142568375368,0.0124636167787656,0.0387317820193384,-0.0175845445040265
6.38,0.0244198726392859,0.0224104535588203,0.0415569706116081,-0.0231467502750662
6.385,0.0221100600771749,0.0242404470964987,0.0416337611389526,-0.0244525346456089
6.39,0.0194397081939758,0.0171771596814619,0.0383403516297468,-0.0210399382736026
6.395,0.0175532112156235,0.00550502112367655,0.032666170427841,-0.0148148846996212
6.4,0.0172714927304445,-0.00378572935225117,0.0268239705033983,-0.00902762524872726
6.405,0.0187116248763779,-0.00487076160937143,0.0232407753378439,-0.00648419129758859
6.41,0.0212283329083617,0.00362352047375101,0.0234948446547054,-0.00816182212569433
6.415,0.0237097614028691,0.0176837000612754,0.0273627590321621,-0.0128498625591056
6.42,0.0251066918131574,0.0299910302476323,0.0329515196541887,-0.0179576785256454
6.425,0.0249141722014699,0.0338561781400739,0.0377248647490953,-0.0209293988181066
6.43,0.0233875939865892,0.0268951177773918,0.0397786628183265,-0.0207293132965913
6.435,0.0213869875567364,0.012466249239968,0.038783745527098,-0.0182250261759889
6.44,0.0199423403055302,-0.00188388188814503,0.036369276617345,-0.0155335187166723
6.445,0.0197275008196887,-0.00845882315583517,0.0349072850534799,-0.0147184600574293
6.45,0.0207398818039118,-0.00354054868766806,0.0360391301865349,-0.0164855352680525
6.455,0.0223209762945222,0.010519350885271,0.0395958014097646,-0.0198168113520457
6.46,0.023504755607132,0.0263701429972811,0.0435042597971114,-0.0225203566812499
6.465,0.0235324694667077,0.0356657959749538,0.044842905692798,-0.0226942607443424
6.47,0.0222518484139517,0.0336188710387716,0.0417676824817803,-0.0200361778104651
6.475,0.0202102876290207,0.0214894458009992,0.03479554565709,-0.016002188363164
6.48,0.0184018040737433,0.00603198340627091,0.0267389491828616,-0.0132398696709463
6.485,0.0177784291441664,-0.0042224409553881,0.0213346754795942,-0.013899409965058
6.49,0.0187590750352638,-0.00394988229261869,0.0212923411025964,-0.0182550439242414
6.495,0.021015643203302,0.00603778186897209,0.0265209451242916,-0.0243304307577772
6.5,0.0236064209046628,0.0192143095059355,0.0340453164226233,-0.0289066170641603
6.505,0.025399153230612,0.0269664070850647,0.0396332499344098,-0.0292780563177413
6.51,0.0256005689046003,0.0237093998123684,0.0400895673899149,-0.0247632578863341
6.515,0.0241290327260904,0.0103589046907856,0.034928815856408,-0.0174564368263225
6.52,0.0216352178409663,-0.00607676730357179,0.0268804027097241,-0.0110694252009668
6.525,0.0192013144238398,-0.016187360897058,0.0204571130525113,-0.00891256188688256
6.53,0.0178444957372483,-0.013588452337721,0.0193112420296746,-0.012126020354263
6.535,0.0180730500262469,0.00120122127283918,0.0242983382345131,-0.0187958704769596
6.54,0.0196777445477007,0.0209199412582776,0.0330551015121886,-0.0249243428347271
6.545,0.0218743767303177,0.03537966663379,0.0411248562455376,-0.026533656112688
6.55,0.0236809102187803,0.0371347490884112,0.0443861841563059,-0.0220151726278498
6.555,0.0243734713180863,0.0256776325481099,0.0415176026338456,-0.0131351790078155
6.56,0.02378854492031,0.0077405938678116,0.0345973176727047,-0.00424316111626649
6.565,0.022349318515066,-0.00647831432524282,0.0278879353102373,-0.000316836511993387
6.57,0.0208269627248195,-0.00899628075389303,0.025613276686616,-0.00409731459366218
6.575,0.019969384777857,0.00133932743258453,0.0294089367473045,-0.0146405581819882
6.58,0.0201458076140987,0.0184245526143121,0.0372892554136613,-0.0276709349632471
6.585,0.0212085026842219,0.0323803692995386,0.0448322122027786,-0.0375320286010102
6.59,0.0225865019205453,0.035096468118261,0.0475459004559534,-0.0400370295682811
6.595,0.0235815513373122,0.0249353135120645,0.043306380778979,-0.0345745139991247
6.6,0.0236789246517289,0.00760819492326258,0.0336531524904259,-0.0244398494066601
6.605,0.0227898236974373,-0.00713031805838972,0.023072751942912,-0.0149171636245153
6.61,0.021267003366831,-0.0109481707204798,0.016483470627364,-0.0107342855918976
6.615,0.0197307158447607,-0.00160830269353206,0.0166866652369673,-0.0136458754288475
6.62,0.0187869201931738,0.015720458071537,0.0231036222103818,-0.0214078907299949
6.625,0.0187644774793562,0.0314355681568737,0.0322146898884766,-0.0293515526650581
6.63,0.0196041879984927,0.0367660691415066,0.0394698184629293,-0.0327204002001599
6.635,0.0209233833382951,0.0286154736202136,0.0419379696375529,-0.0291233860016751
6.64,0.0222081199656057,0.0113058153960819,0.0396323208661443,-0.0198557349738583
6.645,0.0230460145881587,-0.00594867126046416,0.0350441098202712,-0.0090230301579586
6.65,0.0232802264160243,-0.0140816979305444,0.0316143063912397,-0.00130072728801182
6.655,0.0230071302627113,-0.00898329216690359,0.0318358506779894,0.000424014721804747
6.66,0.022477708024315,0.00639902026884829,0.0356663579460383,-0.00362771741214052
6.665,0.0219529376440362,0.0237295099031536,0.0409314468868278,-0.0103343272898766
6.67,0.0215875061624376,0.0340751088720658,0.0446761779140159,-0.0156239006087878
6.675,0.0214297386996435,0.0326359782064956,0.0447276866554935,-0.0166995915292968
6.68,0.0214780314486257,0.0211294362359661,0.040864723037643,-0.0132828092092848
6.685,0.0217285472030358,0.00658158807714273,0.0349394844408799,-0.00780093421178503
6.69,0.0221977938786368,-0.00279310125742619,0.0296702720942081,-0.00387026033375351
6.695,0.0228630114640115,-0.00210583373846949,0.027302418589043,-0.00420859035841711
6.7,0.0235830683466597,0.00776281211308914,0.0286688463692799,-0.00934467763799084
6.705,0.0240765355735112,0.0208412156009747,0.0327471389106963,-0.0172918229103747
6.71,0.0240083075404048,0.0295948534011115,0.0373825438628172,-0.0246648255598834
6.715,0.0231468657687747,0.0291430958036164,0.0403595494259214,-0.028495955882617
6.72,0.0215356901352005,0.0197700402488038,0.0404763723228187,-0.0277180776118683
6.725,0.019553633190232,0.00656846491576572,0.0379880443374826,-0.0235106003535069
6.73,0.0178156656380992,-0.00340699298555612,0.0344232287108296,-0.0185975012796233
6.735,0.01694000303804,-0.00501031464249467,0.0317433132924669,-0.015696143739319
6.74,0.0172825497806097,0.0024507258722869,0.0314142286713559,-0.0159985341196446
6.745,0.0187694990067577,0.0150280644361821,0.0336162378979375,-0.0186108583582066
6.75,0.0209175409873191,0.0263254523900276,0.0373017963101082,-0.0211852183565612
6.755,0.023046303672259,0.030926423807906,0.0406962032234181,-0.0211886122085302
6.76,0.024565997353799,0.0270699546793203,0.04217161040624,-0.0175001153932394
6.765,0.0251833218963167,0.0172635851460659,0.0410668315306692,-0.0110143307092078
6.77,0.0249866407039709,0.00693309143200446,0.038056147269608,-0.00427564313157401
6.775,0.0243164973787726,0.0015372633809588,0.034700658516735,-0.000128054121788772
6.78,0.0235371977164883,0.00368481080390132,0.0327293419142402,-0.000210741148599633
6.785,0.0228533584706348,0.0119415920931164,0.0331455095024265,-0.0041608997297559
6.79,0.0222442751071157,0.0215864874248421,0.0357453988605179,-0.00966332105194806
6.795,0.0215480846139814,0.027123341946125,0.0393174446125178,-0.0137558571758746
6.8,0.0206516107893784,0.0251393140620561,0.0422340939093892,-0.0144159441760785
6.805,0.0196327244936574,0.0160635006459432,0.0432574391995048,-0.0115288851698292
6.81,0.0187935088039715,0.0041049850580245,0.0422367924278428,-0.00706126422364745
6.815,0.0185257813877065,-0.00479396798149593,0.040025499331941,-0.00391037742233398
6.82,0.0190906699168421,-0.00609967015069855,0.0380086838174974,-0.0043950207647687
6.825,0.0204336362599479,0.001005539242744,0.0371665351880414,-0.00896633885003022
6.83,0.022143792339711,0.0131515599478992,0.0374447785331234,-0.0159388405827809
6.835,0.0236005880878104,0.0244364277043472,0.0376808269239426,-0.0223376188492619
6.84,0.02423900770632,0.0294816921294546,0.0363901320358717,-0.0253776760129904
6.845,0.0238157912398342,0.0262672193358821,0.0326761662142514,-0.0240190215263703
6.85,0.0225264142217857,0.0170708847558628,0.0272066763309661,-0.0194589740789652
6.855,0.0209110013473854,0.00732962073894946,0.0221835842249439,-0.0145577770428735
6.86,0.0196144610086251,0.00254626028037597,0.0203786554111985,-0.0123526684857736
6.865,0.0190950937114392,0.00530034823364927,0.0235932046454813,-0.0142805125843391
6.87,0.0194426568070273,0.0138678692922938,0.0314984909862978,-0.0195557231549284
6.875,0.020377697468775,0.0230509047694735,0.0413365680088706,-0.0253407996398314
6.88,0.0214314443270043,0.0270272244004852,0.0491389749797531,-0.0283000768407659
6.885,0.022168640004784,0.0228146534310485,0.0517244245465995,-0.0264418305197217
6.89,0.0223831851973366,0.0119971323746127,0.0484114054757614,-0.0200556183757109
6.895,0.0221370651108296,0.000137921197400513,0.0414399683322077,-0.0117412300519523
6.9,0.0216699883919504,-0.0060821864090564,0.0347845448644209,-0.00502621742889237
6.905,0.0212627541901582,-0.00264180187316333,0.0318816848522024,-0.00254508207918911
6.91,0.0211037766254406,0.0094757683597665,0.033736310008368,-0.00464322617219959
6.915,0.0212354629971308,0.0244466602509828,0.0383269037903115,-0.0094064539410309
6.92,0.0215862008078382,0.034417628342821,0.0417035085581987,-0.013846891800926
6.925,0.0220218811218246,0.0337548238474461,0.0404996484479461,-0.0155372577076303
6.93,0.022398274351385,0.0222278055161344,0.0340313865419022,-0.0141848185257133
6.935,0.0225970739742355,0.0053627271813254,0.0248733613264675,-0.0115756937216719
6.94,0.0225418458387409,-0.00838350741345043,0.0176335683994103,-0.0104679454414418
6.945,0.022210382208199,-0.0121149394000732,0.0163827987689676,-0.0129152887569542
6.95,0.0216709303066354,-0.00438792748945485,0.0222053168659027,-0.0188354687646432
6.955,0.021071197231001,0.00991252508458123,0.0324986950506113,-0.0259878774880883
6.96,0.0206113466075863,0.0222147838650737,0.0421382729250213,-0.0310832622167784
6.965,0.0204703256047468,0.0252163697035214,0.0461899958669582,-0.0317361542949838
6.97,0.0207135435184576,0.0172078736329664,0.0425868961686665,-0.0278478103231288
6.975,0.0212468834557576,0.003252742393574,0.0332645932338992,-0.0216751105497376
6.98,0.0218474646470049,-0.00756195258328511,0.0231418762321066,-0.0166700011925349
6.985,0.0222415805218324,-0.00738391332420489,0.017626576549875,-0.015379775130975
6.99,0.0222249458180459,0.00560048368810031,0.0196153682341499,-0.0180874762511271
6.995,0.0217685452165666,0.0256010513015495,0.028097519189302,-0.0225410696974658
7,0.0210320099892031,0.0422539312012005,0.0387549277760316,-0.0253579625962615
7.005,0.0203250584901145,0.0462861199786485,0.0464304808295451,-0.0241158026722454
7.01,0.0200046900015983,0.0348977028468818,0.0479657958612809,-0.0187844027035925
7.015,0.0203449477967456,0.0135445150459822,0.0437830162831103,-0.0120888596095793
7.02,0.0214367649654675,-0.00684014473820716,0.0373870698221691,-0.00790718198881991
7.025,0.0231063110419974,-0.0158066198055703,0.0332272644885791,-0.00896289319937042
7.03,0.0249207271909683,-0.00910846121499478,0.0337893087083382,-0.0151566799996579
7.035,0.026278493274219,0.00887147369293878,0.0381162144404256,-0.0233413612780956
7.04,0.0265788523294332,0.027735015274601,0.0424652433098208,-0.0289547565855549
7.045,0.0254554158515396,0.0368242626231406,0.0425929639609382,-0.0285896443193238
7.05,0.0229826051756354,0.0311501195217582,0.0365307199885255,-0.0221086777021081
7.055,0.0197528185812962,0.0140570785730828,0.0261588900053135,-0.012866659131373
7.06,0.0167432406784757,-0.00480685750306725,0.0162132047798088,-0.00605225944352296
7.065,0.0150134917484598,-0.0150791590217598,0.0117183405833417,-0.00597508760938201
7.07,0.0152798429644785,-0.0115324277525818,0.0151095035295046,-0.0134113655259197
7.075,0.0175953597733744,0.00304949890539019,0.024576004898408,-0.0251273054959892
7.08,0.0212604412311933,0.019579869168244,0.0350368865376567,-0.035437771669037
7.085,0.0250457873177333,0.0280008136438045,0.0410317746354675,-0.039077991245124
7.09,0.0276484212370223,0.0231169313518157,0.0396612634880837,-0.0341412066576046
7.095,0.0281888624229906,0.00768421348647479,0.0322688011674784,-0.0230780068726676
7.1,0.0265581094707896,-0.00901239157709381,0.023747429370106,-0.0114521229653606
7.105,0.0234317447287872,-0.016380111676109,0.0196290523872331,-0.00489746947008848
7.11,0.0199760870203158,-0.00865624405737658,0.0229711973388028,-0.00622637114070828
7.115,0.0173731171060909,0.0116702716951817,0.0327322985540795,-0.0139062022772201
7.12,0.0163917762489335,0.0349345036451459,0.0443622818765953,-0.0227868413389093
7.125,0.017153363869364,0.0494351795923577,0.0523894120054395,-0.027157917531904
7.13,0.0191804519093227,0.0478317140706134,0.0534912893679617,-0.0237958267949906
7.135,0.0216722004102357,0.0311470214344951,0.0482301817446998,-0.0138139681200768
7.14,0.0238495413481747,0.00833731242112664,0.0405313273189378,-0.00227413560414443
7.145,0.0252038524052882,-0.00852418515844338,0.0353489969322466,0.00453265874443332
7.15,0.0255908120907796,-0.0108904190365377,0.0357775035090566,0.00253589363774117
7.155,0.0251668499902126,0.0016887455141644,0.0412528438147611,-0.00788637509609646
7.16,0.0242180306476195,0.0214776729507667,0.0478617232588385,-0.021983960750492
7.165,0.0230153986432167,0.0368917949744198,0.0506841003988318,-0.0329459840350535
7.17,0.0217579189696211,0.0389395430782113,0.0465684146787428,-0.0354965435794209
7.175,0.0205738267185828,0.0262242249307758,0.0359906993306623,-0.0287443640827682
7.18,0.0195732701355311,0.00552688555908245,0.0230124484739301,-0.0165615275940367
7.185,0.0188765085420463,-0.012053862410873,0.0131054984885636,-0.00568223220651762
7.19,0.0186041607763959,-0.0173832919858875,0.0102678836651766,-0.00207268707991663
7.195,0.0188230704189648,-0.00832634695104407,0.0150334600806036,-0.00772394624155322
7.2,0.0195022820599124,0.00918388115220512,0.024284902958037,-0.0197206975886943
7.205,0.0204901598088169,0.0247027716288533,0.0330052221404193,-0.0316289622443871
7.21,0.021571034506178,0.0292385183652972,0.0372045411435313,-0.0369643856272193
7.215,0.0225206675292183,0.0204036269963004,0.035974347749073,-0.032528450764329
7.22,0.0231694485586,0.00372550929885285,0.0318085006612682,-0.019999951843534
7.225,0.0234213532225565,-0.0105417672470474,0.0290460603896094,-0.00487367732986014
7.23,0.0232433903949511,-0.0132477989559592,0.0311796311697067,0.00639634911366415
